trial	stim	resp	condition	dotsize	area	Hull	density	inducer	RT	Subject
1	94	100	1	10	9400	340	0.000813	25	4201	11
2	91	120	5	10	9100	320	0.000889	25	3199	11
3	67	90	5	10	6700	280	0.000855	25	3590	11
4	86	130	0	8	5504	340	0.000744	25	2447	11
5	30	50	5	10	3000	180	0.000926	25	5410	11
6	85	100	1	10	8500	340	0.000735	25	4506	11
7	19	20	5	10	1900	140	0.000969	25	3123	11
8	47	60	0	10	4700	340	0.000407	25	2963	11
9	24	30	1	10	2400	340	0.000208	25	4336	11
10	95	100	1	10	9500	340	0.000822	25	3569	11
11	22	30	1	10	2200	340	0.000190	25	4169	11
12	27	30	0	14	5292	336	0.000239	25	2903	11
13	93	110	5	10	9300	320	0.000908	25	4231	11
14	88	120	1	10	8800	340	0.000761	25	3347	11
15	52	70	0	10	5200	340	0.000450	25	3317	11
16	52	70	1	10	5200	340	0.000450	25	3379	11
17	39	50	5	10	3900	220	0.000806	25	3112	11
18	56	50	1	10	5600	340	0.000484	25	3287	11
19	34	40	5	10	3400	200	0.000850	25	4113	11
20	41	50	1	10	4100	340	0.000355	25	3492	11
21	98	110	5	10	9800	340	0.000848	25	6568	11
22	13	10	1	10	1300	340	0.000112	25	2583	11
23	79	110	1	10	7900	340	0.000683	25	6598	11
24	68	80	0	8	4352	340	0.000588	25	3482	11
25	63	80	1	10	6300	340	0.000545	25	5123	11
26	83	90	1	10	8300	340	0.000718	25	3397	11
27	13	10	0	20	5200	320	0.000127	25	3194	11
28	82	90	1	10	8200	340	0.000709	25	4674	11
29	99	110	5	10	9900	340	0.000856	25	3667	11
30	50	60	5	10	5000	240	0.000868	25	4354	11
31	11	10	1	10	1100	340	0.000095	25	2576	11
32	87	70	1	10	8700	340	0.000753	25	4578	11
33	38	40	0	12	5472	336	0.000337	25	3092	11
34	34	40	1	10	3400	340	0.000294	25	3094	11
35	10	10	5	10	1000	100	0.001000	25	2377	11
36	49	40	0	10	4900	340	0.000424	25	3895	11
37	21	20	0	16	5376	336	0.000186	25	3307	11
38	29	30	0	14	5684	336	0.000257	25	2635	11
39	97	80	5	10	9700	340	0.000839	25	5721	11
40	18	10	0	16	4608	336	0.000159	25	12983	11
41	56	50	5	10	5600	260	0.000828	25	3748	11
42	47	50	5	10	4700	240	0.000816	25	4411	11
43	45	50	5	10	4500	220	0.000930	25	3591	11
44	32	40	1	10	3200	340	0.000277	25	3722	11
45	99	90	1	10	9900	340	0.000856	25	6752	11
46	75	100	0	8	4800	340	0.000649	25	4232	11
47	64	80	0	8	4096	340	0.000554	25	4760	11
48	68	60	5	10	6800	280	0.000867	25	3751	11
49	87	100	0	8	5568	340	0.000753	25	5446	11
50	88	90	5	10	8800	320	0.000859	25	4153	11
51	57	50	5	10	5700	260	0.000843	25	2507	11
52	87	90	5	10	8700	320	0.000850	25	3879	11
53	86	100	1	10	8600	340	0.000744	25	4887	11
54	77	80	1	10	7700	340	0.000666	25	6318	11
55	93	100	1	10	9300	340	0.000804	25	3566	11
56	25	20	1	10	2500	340	0.000216	25	2392	11
57	64	60	5	10	6400	280	0.000816	25	3669	11
58	90	100	5	10	9000	320	0.000879	25	4515	11
59	40	40	0	12	5760	336	0.000354	25	8163	11
60	36	30	5	10	3600	200	0.000900	25	3005	11
61	90	100	0	8	5760	340	0.000779	25	3154	11
62	33	40	1	10	3300	340	0.000285	25	3234	11
63	25	30	5	10	2500	160	0.000977	25	4350	11
64	91	110	0	8	5824	340	0.000787	25	3168	11
65	80	100	0	8	5120	340	0.000692	25	3782	11
66	24	20	0	14	4704	336	0.000213	25	2452	11
67	80	80	5	10	8000	300	0.000889	25	3628	11
68	98	100	0	8	6272	340	0.000848	25	3586	11
69	50	60	0	10	5000	340	0.000433	25	2506	11
70	89	90	1	10	8900	340	0.000770	25	3072	11
71	97	80	0	8	6208	340	0.000839	25	2734	11
72	73	80	1	10	7300	340	0.000631	25	3239	11
73	62	70	5	10	6200	260	0.000917	25	6562	11
74	28	30	0	14	5488	336	0.000248	25	2747	11
75	60	60	1	10	6000	340	0.000519	25	3112	11
76	70	90	0	8	4480	340	0.000606	25	2682	11
77	89	90	0	8	5696	340	0.000770	25	4037	11
78	84	90	5	10	8400	320	0.000820	25	3432	11
79	50	50	1	10	5000	340	0.000433	25	2774	11
80	54	60	1	10	5400	340	0.000467	25	4684	11
81	86	60	5	10	8600	320	0.000840	25	3223	11
82	29	20	5	10	2900	180	0.000895	25	3355	11
83	38	40	1	10	3800	340	0.000329	25	3179	11
84	92	70	0	8	5888	340	0.000796	25	5098	11
85	27	30	5	10	2700	180	0.000833	25	2907	11
86	94	80	0	8	6016	340	0.000813	25	4336	11
87	58	70	0	10	5800	340	0.000502	25	4356	11
88	27	30	1	10	2700	340	0.000234	25	4039	11
89	38	30	5	10	3800	200	0.000950	25	2683	11
90	65	60	5	10	6500	280	0.000829	25	2958	11
91	48	60	0	10	4800	340	0.000415	25	3396	11
92	100	80	1	10	10000	340	0.000865	25	3377	11
93	21	30	1	10	2100	340	0.000182	25	2083	11
94	11	10	5	10	1100	120	0.000764	25	2313	11
95	45	50	0	10	4500	340	0.000389	25	2470	11
96	93	80	0	8	5952	340	0.000804	25	3919	11
97	16	20	0	18	5184	336	0.000142	25	3138	11
98	74	70	5	10	7400	300	0.000822	25	4611	11
99	37	40	0	12	5328	336	0.000328	25	3202	11
100	35	50	1	10	3500	340	0.000303	25	3592	11
101	31	40	0	12	4464	336	0.000275	25	2395	11
102	83	90	0	8	5312	340	0.000718	25	2359	11
103	41	60	0	12	5904	336	0.000363	25	3424	11
104	22	30	5	10	2200	160	0.000859	25	2643	11
105	44	80	0	10	4400	340	0.000381	25	4453	11
106	32	50	0	12	4608	336	0.000283	25	3120	11
107	17	30	0	18	5508	336	0.000151	25	3988	11
108	31	30	5	10	3100	180	0.000957	25	3405	11
109	14	20	1	10	1400	340	0.000121	25	2940	11
110	81	80	5	10	8100	300	0.000900	25	4809	11
111	36	80	1	10	3600	340	0.000311	25	2780	11
112	36	60	0	12	5184	336	0.000319	25	2580	11
113	18	20	5	10	1800	140	0.000918	25	2363	11
114	28	40	1	10	2800	340	0.000242	25	3196	11
115	20	30	1	10	2000	340	0.000173	25	2699	11
116	16	20	1	10	1600	340	0.000138	25	2971	11
117	15	10	0	18	4860	336	0.000133	25	2413	11
118	46	40	5	10	4600	240	0.000799	25	5688	11
119	42	60	0	10	4200	340	0.000363	25	2946	11
120	43	60	0	10	4300	340	0.000372	25	3049	11
121	61	90	1	10	6100	340	0.000528	25	3546	11
122	79	100	5	10	7900	300	0.000878	25	4835	11
123	37	50	5	10	3700	200	0.000925	25	3713	11
124	66	80	1	10	6600	340	0.000571	25	2607	11
125	78	100	0	8	4992	340	0.000675	25	3491	11
126	69	90	1	10	6900	340	0.000597	25	4849	11
127	42	60	5	10	4200	220	0.000868	25	2552	11
128	55	60	1	10	5500	340	0.000476	25	2976	11
129	68	80	1	10	6800	340	0.000588	25	3007	11
130	34	50	0	12	4896	336	0.000301	25	4713	11
131	72	80	1	10	7200	340	0.000623	25	3423	11
132	60	60	5	10	6000	260	0.000888	25	3439	11
133	84	80	0	8	5376	340	0.000727	25	3044	11
134	49	60	1	10	4900	340	0.000424	25	6487	11
135	9	10	1	10	900	340	0.000078	25	2017	11
136	45	50	1	10	4500	340	0.000389	25	4778	11
137	9	10	5	10	900	100	0.000900	25	2060	11
138	23	30	1	10	2300	340	0.000199	25	2913	11
139	46	60	0	10	4600	340	0.000398	25	4377	11
140	26	40	5	10	2600	180	0.000802	25	2589	11
141	76	100	0	8	4864	340	0.000657	25	4864	11
142	52	70	5	10	5200	240	0.000903	25	2336	11
143	55	70	5	10	5500	260	0.000814	25	2720	11
144	81	80	0	8	5184	340	0.000701	25	4492	11
145	82	90	0	8	5248	340	0.000709	25	3750	11
146	15	20	5	10	1500	140	0.000765	25	1758	11
147	20	20	5	10	2000	160	0.000781	25	2874	11
148	95	100	0	8	6080	340	0.000822	25	2903	11
149	33	30	5	10	3300	200	0.000825	25	2628	11
150	77	80	0	8	4928	340	0.000666	25	3765	11
151	42	50	1	10	4200	340	0.000363	25	2196	11
152	16	20	5	10	1600	140	0.000816	25	1803	11
153	92	90	1	10	9200	340	0.000796	25	6261	11
154	81	80	1	10	8100	340	0.000701	25	2896	11
155	14	20	0	18	4536	336	0.000124	25	4735	11
156	74	50	0	8	4736	340	0.000640	25	2458	11
157	55	50	0	10	5500	340	0.000476	25	4407	11
158	63	50	5	10	6300	260	0.000932	25	4192	11
159	92	80	5	10	9200	320	0.000898	25	2411	11
160	74	60	1	10	7400	340	0.000640	25	4126	11
161	46	50	1	10	4600	340	0.000398	25	2840	11
162	30	30	0	12	4320	336	0.000266	25	3025	11
163	59	60	0	10	5900	340	0.000510	25	3437	11
164	65	70	1	10	6500	340	0.000562	25	2493	11
165	61	50	5	10	6100	260	0.000902	25	2507	11
166	54	50	5	10	5400	240	0.000937	25	2459	11
167	10	10	0	22	4840	320	0.000098	25	1995	11
168	82	70	5	10	8200	300	0.000911	25	2718	11
169	57	60	1	10	5700	340	0.000493	25	3446	11
170	43	40	5	10	4300	220	0.000888	25	3000	11
171	63	80	0	8	4032	340	0.000545	25	5424	11
172	40	60	1	10	4000	340	0.000346	25	3127	11
173	58	60	5	10	5800	260	0.000858	25	2772	11
174	78	70	1	10	7800	340	0.000675	25	4682	11
175	48	40	1	10	4800	340	0.000415	25	3096	11
176	17	20	5	10	1700	140	0.000867	25	2557	11
177	70	60	5	10	7000	280	0.000893	25	4077	11
178	22	20	0	16	5632	336	0.000195	25	3131	11
179	75	50	5	10	7500	300	0.000833	25	3779	11
180	53	50	1	10	5300	340	0.000458	25	3152	11
181	41	40	5	10	4100	220	0.000847	25	2620	11
182	59	60	5	10	5900	260	0.000873	25	2842	11
183	26	30	1	10	2600	340	0.000225	25	2937	11
184	73	80	5	10	7300	300	0.000811	25	4410	11
185	79	80	0	8	5056	340	0.000683	25	2163	11
186	89	90	5	10	8900	320	0.000869	25	2839	11
187	54	70	0	10	5400	340	0.000467	25	2171	11
188	65	90	0	8	4160	340	0.000562	25	2132	11
189	71	70	5	10	7100	280	0.000906	25	2525	11
190	23	30	0	14	4508	336	0.000204	25	2243	11
191	100	100	5	10	10000	340	0.000865	25	4158	11
192	53	70	0	10	5300	340	0.000458	25	4029	11
193	30	40	1	10	3000	340	0.000260	25	2620	11
194	88	90	0	8	5632	340	0.000761	25	3867	11
195	100	100	0	8	6400	340	0.000865	25	2836	11
196	75	70	1	10	7500	340	0.000649	25	3294	11
197	67	80	0	8	4288	340	0.000580	25	2972	11
198	35	40	0	12	5040	336	0.000310	25	3109	11
199	19	30	1	10	1900	340	0.000164	25	3099	11
200	44	50	1	10	4400	340	0.000381	25	4562	11
201	40	40	5	10	4000	220	0.000826	25	2754	11
202	13	20	5	10	1300	120	0.000903	25	2693	11
203	67	80	1	10	6700	340	0.000580	25	6461	11
204	37	50	1	10	3700	340	0.000320	25	4244	11
205	51	70	1	10	5100	340	0.000441	25	7135	11
206	96	80	0	8	6144	340	0.000830	25	5241	11
207	61	60	0	10	6100	340	0.000528	25	2576	11
208	21	30	5	10	2100	160	0.000820	25	2275	11
209	39	50	1	10	3900	340	0.000337	25	3233	11
210	72	60	5	10	7200	280	0.000918	25	4352	11
211	56	80	0	10	5600	340	0.000484	25	2543	11
212	57	70	0	10	5700	340	0.000493	25	3754	11
213	44	50	5	10	4400	220	0.000909	25	3355	11
214	96	90	5	10	9600	340	0.000830	25	3777	11
215	29	40	1	10	2900	340	0.000251	25	3906	11
216	69	80	0	8	4416	340	0.000597	25	3657	11
217	59	60	1	10	5900	340	0.000510	25	2791	11
218	48	50	5	10	4800	240	0.000833	25	4031	11
219	12	10	0	20	4800	320	0.000117	25	2197	11
220	33	40	0	12	4752	336	0.000292	25	3069	11
221	24	30	5	10	2400	160	0.000937	25	2485	11
222	96	90	1	10	9600	340	0.000830	25	4071	11
223	53	70	5	10	5300	240	0.000920	25	3215	11
224	23	30	5	10	2300	160	0.000898	25	2551	11
225	14	20	5	10	1400	120	0.000972	25	2143	11
226	76	80	5	10	7600	300	0.000844	25	4514	11
227	35	50	5	10	3500	200	0.000875	25	4139	11
228	95	100	5	10	9500	340	0.000822	25	3153	11
229	18	30	1	10	1800	340	0.000156	25	3713	11
230	80	100	1	10	8000	340	0.000692	25	4649	11
231	39	40	0	12	5616	336	0.000345	25	2874	11
232	60	60	0	10	6000	340	0.000519	25	3016	11
233	66	70	5	10	6600	280	0.000842	25	3456	11
234	98	90	1	10	9800	340	0.000848	25	2416	11
235	70	90	1	10	7000	340	0.000606	25	2697	11
236	84	90	1	10	8400	340	0.000727	25	2981	11
237	64	70	1	10	6400	340	0.000554	25	3772	11
238	76	80	1	10	7600	340	0.000657	25	3119	11
239	15	20	1	10	1500	340	0.000130	25	2216	11
240	51	40	5	10	5100	240	0.000885	25	3163	11
241	28	30	5	10	2800	180	0.000864	25	2163	11
242	73	90	0	8	4672	340	0.000631	25	4811	11
243	11	10	0	22	5324	320	0.000107	25	2733	11
244	83	80	5	10	8300	300	0.000922	25	4348	11
245	66	90	0	8	4224	340	0.000571	25	2116	11
246	31	40	1	10	3100	340	0.000268	25	2963	11
247	99	110	0	8	6336	340	0.000856	25	3819	11
248	26	30	0	14	5096	336	0.000230	25	5128	11
249	12	20	5	10	1200	120	0.000833	25	1782	11
250	69	70	5	10	6900	280	0.000880	25	3061	11
251	49	70	5	10	4900	240	0.000851	25	2681	11
252	17	30	1	10	1700	340	0.000147	25	3212	11
253	25	40	0	14	4900	336	0.000221	25	2082	11
254	43	70	1	10	4300	340	0.000372	25	3281	11
255	71	90	0	8	4544	340	0.000614	25	3286	11
256	85	90	0	8	5440	340	0.000735	25	4876	11
257	71	100	1	10	7100	340	0.000614	25	3507	11
258	19	20	0	16	4864	336	0.000168	25	3606	11
259	85	90	5	10	8500	320	0.000830	25	3020	11
260	12	20	1	10	1200	340	0.000104	25	2178	11
261	32	40	5	10	3200	200	0.000800	25	4169	11
262	94	90	5	10	9400	320	0.000918	25	5009	11
263	10	10	1	10	1000	340	0.000087	25	2929	11
264	9	10	0	24	5184	324	0.000086	25	2222	11
265	58	70	1	10	5800	340	0.000502	25	3461	11
266	20	30	0	16	5120	336	0.000177	25	2783	11
267	72	90	0	8	4608	340	0.000623	25	4276	11
268	90	110	1	10	9000	340	0.000779	25	3878	11
269	91	110	1	10	9100	340	0.000787	25	3564	11
270	62	100	1	10	6200	340	0.000536	25	4674	11
271	51	70	0	10	5100	340	0.000441	25	3340	11
272	62	80	0	8	3968	340	0.000536	25	3640	11
273	77	80	5	10	7700	300	0.000856	25	2638	11
274	78	80	5	10	7800	300	0.000867	25	2917	11
275	47	60	1	10	4700	340	0.000407	25	2943	11
276	97	80	1	10	9700	340	0.000839	25	5100	11
277	67	90	1	10	6700	340	0.000580	30	3163	11
278	9	10	5	10	900	100	0.000900	30	4113	11
279	18	30	1	10	1800	340	0.000156	30	2723	11
280	42	60	1	10	4200	340	0.000363	30	3298	11
281	46	60	5	10	4600	240	0.000799	30	2641	11
282	45	50	5	10	4500	220	0.000930	30	2518	11
283	51	90	0	10	5100	340	0.000441	30	3799	11
284	88	110	0	8	5632	340	0.000761	30	2800	11
285	15	20	1	10	1500	340	0.000130	30	1984	11
286	86	80	5	10	8600	320	0.000840	30	3504	11
287	68	100	0	8	4352	340	0.000588	30	4387	11
288	63	80	1	10	6300	340	0.000545	30	2232	11
289	79	80	5	10	7900	300	0.000878	30	2745	11
290	44	60	1	10	4400	340	0.000381	30	3174	11
291	34	40	5	10	3400	200	0.000850	30	2571	11
292	49	60	0	10	4900	340	0.000424	30	2436	11
293	72	80	1	10	7200	340	0.000623	30	2384	11
294	30	30	5	10	3000	180	0.000926	30	2535	11
295	24	30	5	10	2400	160	0.000937	30	2560	11
296	12	20	1	10	1200	340	0.000104	30	2497	11
297	18	20	5	10	1800	140	0.000918	30	2946	11
298	44	40	5	10	4400	220	0.000909	30	3455	11
299	53	60	5	10	5300	240	0.000920	30	2281	11
300	47	60	5	10	4700	240	0.000816	30	5174	11
301	45	70	1	10	4500	340	0.000389	30	3512	11
302	85	100	1	10	8500	340	0.000735	30	3526	11
303	63	100	0	8	4032	340	0.000545	30	3409	11
304	88	110	5	10	8800	320	0.000859	30	5489	11
305	97	100	5	10	9700	340	0.000839	30	4089	11
306	87	120	0	8	5568	340	0.000753	30	2342	11
307	51	70	1	10	5100	340	0.000441	30	3851	11
308	78	110	0	8	4992	340	0.000675	30	3542	11
309	82	80	0	8	5248	340	0.000709	30	4042	11
310	11	10	0	22	5324	320	0.000107	30	2140	11
311	55	80	1	10	5500	340	0.000476	30	3260	11
312	31	40	5	10	3100	180	0.000957	30	3392	11
313	38	50	5	10	3800	200	0.000950	30	2349	11
314	35	40	5	10	3500	200	0.000875	30	5502	11
315	19	20	5	10	1900	140	0.000969	30	2246	11
316	25	20	5	10	2500	160	0.000977	30	2924	11
317	15	10	5	10	1500	140	0.000765	30	2800	11
318	86	100	0	8	5504	340	0.000744	30	7577	11
319	95	110	1	10	9500	340	0.000822	30	2848	11
320	98	120	5	10	9800	340	0.000848	30	8360	11
321	84	90	5	10	8400	320	0.000820	30	5488	11
322	93	110	0	8	5952	340	0.000804	30	3090	11
323	60	70	1	10	6000	340	0.000519	30	2941	11
324	90	90	5	10	9000	320	0.000879	30	2480	11
325	47	70	0	10	4700	340	0.000407	30	4086	11
326	12	10	0	20	4800	320	0.000117	30	1877	11
327	54	50	5	10	5400	240	0.000937	30	2733	11
328	19	20	0	16	4864	336	0.000168	30	2475	11
329	22	20	5	10	2200	160	0.000859	30	2395	11
330	13	10	5	10	1300	120	0.000903	30	3058	11
331	91	110	0	8	5824	340	0.000787	30	2607	11
332	56	60	5	10	5600	260	0.000828	30	4927	11
333	28	30	5	10	2800	180	0.000864	30	2273	11
334	39	60	1	10	3900	340	0.000337	30	2814	11
335	26	40	1	10	2600	340	0.000225	30	3099	11
336	26	30	5	10	2600	180	0.000802	30	2955	11
337	73	80	1	10	7300	340	0.000631	30	2916	11
338	75	100	0	8	4800	340	0.000649	30	2609	11
339	76	90	1	10	7600	340	0.000657	30	2614	11
340	43	50	5	10	4300	220	0.000888	30	3282	11
341	17	20	5	10	1700	140	0.000867	30	1995	11
342	26	30	0	14	5096	336	0.000230	30	3059	11
343	34	70	1	10	3400	340	0.000294	30	3047	11
344	57	70	1	10	5700	340	0.000493	30	4089	11
345	79	100	1	10	7900	340	0.000683	30	3677	11
346	74	100	0	8	4736	340	0.000640	30	4311	11
347	65	80	0	8	4160	340	0.000562	30	2828	11
348	85	80	5	10	8500	320	0.000830	30	3226	11
349	84	90	1	10	8400	340	0.000727	30	3265	11
350	31	60	1	10	3100	340	0.000268	30	6690	11
351	78	80	1	10	7800	340	0.000675	30	2566	11
352	80	60	5	10	8000	300	0.000889	30	2851	11
353	50	60	1	10	5000	340	0.000433	30	4234	11
354	25	40	0	14	4900	336	0.000221	30	3113	11
355	70	90	0	8	4480	340	0.000606	30	3595	11
356	99	90	5	10	9900	340	0.000856	30	6066	11
357	27	40	1	10	2700	340	0.000234	30	3775	11
358	22	30	0	16	5632	336	0.000195	30	2659	11
359	27	30	5	10	2700	180	0.000833	30	2578	11
360	100	120	0	8	6400	340	0.000865	30	3852	11
361	65	80	5	10	6500	280	0.000829	30	2252	11
362	72	120	0	8	4608	340	0.000623	30	4421	11
363	66	80	5	10	6600	280	0.000842	30	3093	11
364	16	20	0	18	5184	336	0.000142	30	2420	11
365	46	70	0	10	4600	340	0.000398	30	3281	11
366	85	100	0	8	5440	340	0.000735	30	4296	11
367	94	120	0	8	6016	340	0.000813	30	4679	11
368	37	40	0	12	5328	336	0.000328	30	3916	11
369	61	60	0	10	6100	340	0.000528	30	4127	11
370	38	50	0	12	5472	336	0.000337	30	2202	11
371	53	60	1	10	5300	340	0.000458	30	3298	11
372	68	80	5	10	6800	280	0.000867	30	2508	11
373	35	50	1	10	3500	340	0.000303	30	3396	11
374	51	60	5	10	5100	240	0.000885	30	2583	11
375	50	60	0	10	5000	340	0.000433	30	2599	11
376	48	60	1	10	4800	340	0.000415	30	2656	11
377	28	40	1	10	2800	340	0.000242	30	2508	11
378	32	30	0	12	4608	336	0.000283	30	4676	11
379	64	80	0	8	4096	340	0.000554	30	3288	11
380	73	90	0	8	4672	340	0.000631	30	5102	11
381	63	60	5	10	6300	260	0.000932	30	2702	11
382	52	70	0	10	5200	340	0.000450	30	3046	11
383	99	90	1	10	9900	340	0.000856	30	2359	11
384	9	10	1	10	900	340	0.000078	30	3490	11
385	32	30	5	10	3200	200	0.000800	30	2689	11
386	49	60	1	10	4900	340	0.000424	30	6760	11
387	47	50	1	10	4700	340	0.000407	30	3040	11
388	42	40	5	10	4200	220	0.000868	30	3012	11
389	91	90	5	10	9100	320	0.000889	30	3324	11
390	64	80	1	10	6400	340	0.000554	30	5256	11
391	90	100	0	8	5760	340	0.000779	30	4060	11
392	70	70	5	10	7000	280	0.000893	30	2907	11
393	32	50	1	10	3200	340	0.000277	30	4466	11
394	80	80	1	10	8000	340	0.000692	30	4648	11
395	62	60	1	10	6200	340	0.000536	30	3394	11
396	80	90	0	8	5120	340	0.000692	30	3293	11
397	33	40	1	10	3300	340	0.000285	30	2160	11
398	50	60	5	10	5000	240	0.000868	30	3920	11
399	77	80	1	10	7700	340	0.000666	30	2711	11
400	10	10	0	22	4840	320	0.000098	30	2153	11
401	28	30	0	14	5488	336	0.000248	30	3047	11
402	23	30	0	14	4508	336	0.000204	30	2313	11
403	29	30	5	10	2900	180	0.000895	30	2305	11
404	92	90	5	10	9200	320	0.000898	30	4672	11
405	92	100	0	8	5888	340	0.000796	30	3708	11
406	58	60	0	10	5800	340	0.000502	30	3895	11
407	72	60	5	10	7200	280	0.000918	30	2546	11
408	61	80	1	10	6100	340	0.000528	30	3435	11
409	31	40	0	12	4464	336	0.000275	30	3492	11
410	25	30	1	10	2500	340	0.000216	30	2147	11
411	13	20	1	10	1300	340	0.000112	30	3046	11
412	57	50	5	10	5700	260	0.000843	30	3035	11
413	71	70	5	10	7100	280	0.000906	30	3871	11
414	33	40	5	10	3300	200	0.000825	30	2944	11
415	40	40	1	10	4000	340	0.000346	30	2987	11
416	83	80	5	10	8300	300	0.000922	30	3165	11
417	89	100	1	10	8900	340	0.000770	30	3434	11
418	94	100	1	10	9400	340	0.000813	30	2612	11
419	81	80	0	8	5184	340	0.000701	30	2896	11
420	89	90	0	8	5696	340	0.000770	30	2875	11
421	58	60	1	10	5800	340	0.000502	30	2820	11
422	62	60	5	10	6200	260	0.000917	30	3649	11
423	40	40	0	12	5760	336	0.000354	30	3365	11
424	57	60	0	10	5700	340	0.000493	30	2769	11
425	88	80	1	10	8800	340	0.000761	30	2290	11
426	14	10	1	10	1400	340	0.000121	30	5802	11
427	41	30	5	10	4100	220	0.000847	30	4001	11
428	75	60	5	10	7500	300	0.000833	30	3969	11
429	87	80	5	10	8700	320	0.000850	30	4146	11
430	36	40	1	10	3600	340	0.000311	30	2485	11
431	41	40	0	12	5904	336	0.000363	30	3820	11
432	95	90	0	8	6080	340	0.000822	30	2836	11
433	70	70	1	10	7000	340	0.000606	30	2635	11
434	20	30	0	16	5120	336	0.000177	30	2390	11
435	66	70	0	8	4224	340	0.000571	30	4535	11
436	48	50	5	10	4800	240	0.000833	30	4287	11
437	21	30	1	10	2100	340	0.000182	30	2279	11
438	76	90	5	10	7600	300	0.000844	30	2793	11
439	17	20	0	18	5508	336	0.000151	30	2332	11
440	96	90	1	10	9600	340	0.000830	30	2550	11
441	82	90	1	10	8200	340	0.000709	30	4901	11
442	69	80	5	10	6900	280	0.000880	30	3497	11
443	90	80	1	10	9000	340	0.000779	30	3760	11
444	48	60	0	10	4800	340	0.000415	30	2283	11
445	16	30	1	10	1600	340	0.000138	30	4159	11
446	59	60	1	10	5900	340	0.000510	30	2355	11
447	68	80	1	10	6800	340	0.000588	30	2305	11
448	98	110	0	8	6272	340	0.000848	30	2424	11
449	12	10	5	10	1200	120	0.000833	30	2141	11
450	98	110	1	10	9800	340	0.000848	30	2735	11
451	30	40	0	12	4320	336	0.000266	30	2358	11
452	60	60	0	10	6000	340	0.000519	30	3289	11
453	61	50	5	10	6100	260	0.000902	30	3055	11
454	14	10	5	10	1400	120	0.000972	30	1894	11
455	96	90	5	10	9600	340	0.000830	30	6484	11
456	46	60	1	10	4600	340	0.000398	30	3161	11
457	71	80	0	8	4544	340	0.000614	30	2556	11
458	54	80	1	10	5400	340	0.000467	30	3263	11
459	87	80	1	10	8700	340	0.000753	30	6336	11
460	74	90	1	10	7400	340	0.000640	30	2432	11
461	91	90	1	10	9100	340	0.000787	30	3899	11
462	35	40	0	12	5040	336	0.000310	30	2889	11
463	93	100	1	10	9300	340	0.000804	30	2906	11
464	40	40	5	10	4000	220	0.000826	30	2508	11
465	55	50	5	10	5500	260	0.000814	30	2653	11
466	43	60	1	10	4300	340	0.000372	30	2395	11
467	38	50	1	10	3800	340	0.000329	30	2724	11
468	27	30	0	14	5292	336	0.000239	30	2411	11
469	56	70	0	10	5600	340	0.000484	30	3044	11
470	19	20	1	10	1900	340	0.000164	30	3385	11
471	58	50	5	10	5800	260	0.000858	30	6579	11
472	11	10	1	10	1100	340	0.000095	30	2023	11
473	36	30	5	10	3600	200	0.000900	30	2248	11
474	21	20	5	10	2100	160	0.000820	30	2771	11
475	10	10	1	10	1000	340	0.000087	30	2215	11
476	64	60	5	10	6400	280	0.000816	30	2677	11
477	82	70	5	10	8200	300	0.000911	30	4033	11
478	16	10	5	10	1600	140	0.000816	30	2931	11
479	49	40	5	10	4900	240	0.000851	30	3228	11
480	10	10	5	10	1000	100	0.001000	30	1831	11
481	13	10	0	20	5200	320	0.000127	30	2292	11
482	81	60	1	10	8100	340	0.000701	30	5233	11
483	59	50	5	10	5900	260	0.000873	30	3161	11
484	77	80	0	8	4928	340	0.000666	30	3817	11
485	84	80	0	8	5376	340	0.000727	30	2301	11
486	54	60	0	10	5400	340	0.000467	30	3869	11
487	37	30	5	10	3700	200	0.000925	30	3693	11
488	66	70	1	10	6600	340	0.000571	30	3727	11
489	23	20	5	10	2300	160	0.000898	30	2452	11
490	78	60	5	10	7800	300	0.000867	30	3010	11
491	14	10	0	18	4536	336	0.000124	30	1850	11
492	67	70	0	8	4288	340	0.000580	30	7029	11
493	11	10	5	10	1100	120	0.000764	30	1793	11
494	22	30	1	10	2200	340	0.000190	30	3143	11
495	67	60	5	10	6700	280	0.000855	30	4250	11
496	94	80	5	10	9400	320	0.000918	30	3444	11
497	53	60	0	10	5300	340	0.000458	30	2965	11
498	83	90	0	8	5312	340	0.000718	30	5085	11
499	74	70	5	10	7400	300	0.000822	30	3911	11
500	86	80	1	10	8600	340	0.000744	30	4004	11
501	52	60	1	10	5200	340	0.000450	30	2430	11
502	39	40	0	12	5616	336	0.000345	30	3264	11
503	83	70	1	10	8300	340	0.000718	30	3796	11
504	79	90	0	8	5056	340	0.000683	30	2630	11
505	89	60	5	10	8900	320	0.000869	30	3510	11
506	73	60	5	10	7300	300	0.000811	30	2597	11
507	29	30	1	10	2900	340	0.000251	30	1925	11
508	18	10	0	16	4608	336	0.000159	30	2429	11
509	97	80	0	8	6208	340	0.000839	30	3237	11
510	71	60	1	10	7100	340	0.000614	30	2730	11
511	23	30	1	10	2300	340	0.000199	30	2695	11
512	65	60	1	10	6500	340	0.000562	30	2568	11
513	20	20	1	10	2000	340	0.000173	30	2687	11
514	43	50	0	10	4300	340	0.000372	30	2423	11
515	96	100	0	8	6144	340	0.000830	30	3367	11
516	100	90	1	10	10000	340	0.000865	30	3798	11
517	75	80	1	10	7500	340	0.000649	30	3049	11
518	56	60	1	10	5600	340	0.000484	30	2389	11
519	45	50	0	10	4500	340	0.000389	30	2508	11
520	9	10	0	24	5184	324	0.000086	30	1986	11
521	81	60	5	10	8100	300	0.000900	30	2939	11
522	95	80	5	10	9500	340	0.000822	30	2621	11
523	29	30	0	14	5684	336	0.000257	30	2956	11
524	92	90	1	10	9200	340	0.000796	30	2588	11
525	30	50	1	10	3000	340	0.000260	30	3923	11
526	39	40	5	10	3900	220	0.000806	30	2451	11
527	17	30	1	10	1700	340	0.000147	30	2020	11
528	34	40	0	12	4896	336	0.000301	30	3194	11
529	60	60	5	10	6000	260	0.000888	30	2228	11
530	55	70	0	10	5500	340	0.000476	30	4726	11
531	76	80	0	8	4864	340	0.000657	30	2585	11
532	36	50	0	12	5184	336	0.000319	30	3158	11
533	62	80	0	8	3968	340	0.000536	30	2714	11
534	69	60	1	10	6900	340	0.000597	30	3476	11
535	33	40	0	12	4752	336	0.000292	30	5035	11
536	52	40	5	10	5200	240	0.000903	30	3703	11
537	15	10	0	18	4860	336	0.000133	30	2377	11
538	42	40	0	10	4200	340	0.000363	30	3321	11
539	24	30	0	14	4704	336	0.000213	30	2408	11
540	100	80	5	10	10000	340	0.000865	30	4831	11
541	37	60	1	10	3700	340	0.000320	30	3767	11
542	77	60	5	10	7700	300	0.000856	30	2471	11
543	93	80	5	10	9300	320	0.000908	30	3055	11
544	99	90	0	8	6336	340	0.000856	30	2472	11
545	21	30	0	16	5376	336	0.000186	30	2253	11
546	97	90	1	10	9700	340	0.000839	30	2995	11
547	59	60	0	10	5900	340	0.000510	30	4169	11
548	24	20	1	10	2400	340	0.000208	30	3184	11
549	69	60	0	8	4416	340	0.000597	30	3001	11
550	44	50	0	10	4400	340	0.000381	30	2581	11
551	20	20	5	10	2000	160	0.000781	30	2143	11
552	41	40	1	10	4100	340	0.000355	30	2871	11
1	11	10	1	10	1100	340	0.000095	25	2401	17
2	99	200	0	8	6336	340	0.000856	25	6930	17
3	93	250	0	8	5952	340	0.000804	25	2674	17
4	75	240	0	8	4800	340	0.000649	25	3796	17
5	16	20	1	10	1600	340	0.000138	25	3040	17
6	59	90	0	10	5900	340	0.000510	25	3742	17
7	38	90	1	10	3800	340	0.000329	25	3696	17
8	53	120	0	10	5300	340	0.000458	25	3468	17
9	50	90	5	10	5000	240	0.000868	25	2875	17
10	11	10	5	10	1100	120	0.000764	25	3431	17
11	30	60	0	12	4320	336	0.000266	25	4941	17
12	81	120	1	10	8100	340	0.000701	25	7587	17
13	98	180	0	8	6272	340	0.000848	25	7011	17
14	42	90	1	10	4200	340	0.000363	25	2571	17
15	83	150	5	10	8300	300	0.000922	25	5265	17
16	33	60	5	10	3300	200	0.000825	25	3038	17
17	18	30	1	10	1800	340	0.000156	25	2876	17
18	79	150	0	8	5056	340	0.000683	25	8116	17
19	49	120	0	10	4900	340	0.000424	25	3509	17
20	51	100	1	10	5100	340	0.000441	25	3542	17
21	9	10	5	10	900	100	0.000900	25	5649	17
22	37	50	1	10	3700	340	0.000320	25	3565	17
23	50	60	1	10	5000	340	0.000433	25	3174	17
24	23	50	5	10	2300	160	0.000898	25	2904	17
25	46	120	0	10	4600	340	0.000398	25	4475	17
26	15	30	1	10	1500	340	0.000130	25	2971	17
27	14	20	5	10	1400	120	0.000972	25	2290	17
28	67	150	1	10	6700	340	0.000580	25	3226	17
29	53	200	1	10	5300	340	0.000458	25	9723	17
30	73	170	5	10	7300	300	0.000811	25	8235	17
31	83	250	1	10	8300	340	0.000718	25	5004	17
32	54	180	0	10	5400	340	0.000467	25	6693	17
33	52	100	1	10	5200	340	0.000450	25	4417	17
34	48	90	1	10	4800	340	0.000415	25	4799	17
35	51	100	0	10	5100	340	0.000441	25	3180	17
36	29	80	1	10	2900	340	0.000251	25	7012	17
37	62	70	5	10	6200	260	0.000917	25	4185	17
38	47	90	1	10	4700	340	0.000407	25	3797	17
39	76	130	1	10	7600	340	0.000657	25	3449	17
40	61	120	5	10	6100	260	0.000902	25	6755	17
41	32	90	5	10	3200	200	0.000800	25	4937	17
42	80	150	0	8	5120	340	0.000692	25	6170	17
43	91	200	1	10	9100	340	0.000787	25	2910	17
44	79	180	5	10	7900	300	0.000878	25	4058	17
45	60	90	5	10	6000	260	0.000888	25	2639	17
46	78	160	1	10	7800	340	0.000675	25	6340	17
47	78	160	5	10	7800	300	0.000867	25	4020	17
48	71	180	0	8	4544	340	0.000614	25	2434	17
49	80	190	5	10	8000	300	0.000889	25	2390	17
50	35	80	1	10	3500	340	0.000303	25	2695	17
51	97	250	0	8	6208	340	0.000839	25	3117	17
52	59	150	5	10	5900	260	0.000873	25	3445	17
53	28	90	0	14	5488	336	0.000248	25	3342	17
54	94	200	0	8	6016	340	0.000813	25	4797	17
55	84	250	0	8	5376	340	0.000727	25	2369	17
56	18	40	5	10	1800	140	0.000918	25	3863	17
57	65	180	0	8	4160	340	0.000562	25	7816	17
58	90	170	1	10	9000	340	0.000779	25	7657	17
59	75	180	1	10	7500	340	0.000649	25	8397	17
60	20	30	1	10	2000	340	0.000173	25	3421	17
61	91	200	0	8	5824	340	0.000787	25	5738	17
62	42	160	0	10	4200	340	0.000363	25	11699	17
63	43	90	5	10	4300	220	0.000888	25	3542	17
64	76	160	5	10	7600	300	0.000844	25	5906	17
65	98	260	5	10	9800	340	0.000848	25	9259	17
66	65	150	5	10	6500	280	0.000829	25	4062	17
67	100	280	5	10	10000	340	0.000865	25	5183	17
68	55	140	5	10	5500	260	0.000814	25	3954	17
69	57	130	5	10	5700	260	0.000843	25	5275	17
70	56	100	1	10	5600	340	0.000484	25	3836	17
71	25	40	5	10	2500	160	0.000977	25	7155	17
72	31	50	5	10	3100	180	0.000957	25	3506	17
73	35	60	5	10	3500	200	0.000875	25	2865	17
74	42	60	5	10	4200	220	0.000868	25	7668	17
75	12	20	1	10	1200	340	0.000104	25	3445	17
76	28	30	5	10	2800	180	0.000864	25	2478	17
77	10	10	1	10	1000	340	0.000087	25	2474	17
78	100	120	0	8	6400	340	0.000865	25	8774	17
79	9	8	1	10	900	340	0.000078	25	2923	17
80	14	20	1	10	1400	340	0.000121	25	3746	17
81	31	40	1	10	3100	340	0.000268	25	2884	17
82	92	220	0	8	5888	340	0.000796	25	4995	17
83	95	260	5	10	9500	340	0.000822	25	3677	17
84	41	180	1	10	4100	340	0.000355	25	3969	17
85	63	100	1	10	6300	340	0.000545	25	5099	17
86	56	150	0	10	5600	340	0.000484	25	7336	17
87	34	70	5	10	3400	200	0.000850	25	3887	17
88	36	80	1	10	3600	340	0.000311	25	2339	17
89	100	200	1	10	10000	340	0.000865	25	6237	17
90	58	120	5	10	5800	260	0.000858	25	4251	17
91	66	130	1	10	6600	340	0.000571	25	6254	17
92	82	180	5	10	8200	300	0.000911	25	4044	17
93	81	120	0	8	5184	340	0.000701	25	3935	17
94	11	10	0	22	5324	320	0.000107	25	3077	17
95	52	120	0	10	5200	340	0.000450	25	7063	17
96	44	60	5	10	4400	220	0.000909	25	4806	17
97	49	90	5	10	4900	240	0.000851	25	2169	17
98	55	130	0	10	5500	340	0.000476	25	7640	17
99	77	170	0	8	4928	340	0.000666	25	4397	17
100	22	NaN	1	10	2200	340	0.000190	25	49009	17
101	29	30	0	14	5684	336	0.000257	25	2568	17
102	55	70	1	10	5500	340	0.000476	25	6551	17
103	19	20	0	16	4864	336	0.000168	25	2634	17
104	45	60	1	10	4500	340	0.000389	25	7625	17
105	46	60	5	10	4600	240	0.000799	25	3880	17
106	98	160	1	10	9800	340	0.000848	25	4806	17
107	41	80	5	10	4100	220	0.000847	25	4010	17
108	34	70	1	10	3400	340	0.000294	25	2613	17
109	83	140	0	8	5312	340	0.000718	25	3105	17
110	15	20	5	10	1500	140	0.000765	25	3061	17
111	86	160	0	8	5504	340	0.000744	25	6401	17
112	82	180	1	10	8200	340	0.000709	25	6618	17
113	30	60	5	10	3000	180	0.000926	25	5462	17
114	89	150	1	10	8900	340	0.000770	25	4417	17
115	26	50	5	10	2600	180	0.000802	25	4121	17
116	76	120	0	8	4864	340	0.000657	25	7790	17
117	92	150	5	10	9200	320	0.000898	25	2892	17
118	61	150	1	10	6100	340	0.000528	25	3290	17
119	97	180	5	10	9700	340	0.000839	25	4104	17
120	21	40	5	10	2100	160	0.000820	25	4135	17
121	80	120	1	10	8000	340	0.000692	25	5338	17
122	85	160	1	10	8500	340	0.000735	25	5393	17
123	56	90	5	10	5600	260	0.000828	25	3218	17
124	62	100	0	8	3968	340	0.000536	25	4808	17
125	75	90	5	10	7500	300	0.000833	25	5942	17
126	84	120	1	10	8400	340	0.000727	25	3481	17
127	96	160	5	10	9600	340	0.000830	25	3097	17
128	66	90	5	10	6600	280	0.000842	25	2954	17
129	45	70	5	10	4500	220	0.000930	25	3282	17
130	35	60	0	12	5040	336	0.000310	25	5905	17
131	71	70	5	10	7100	280	0.000906	25	3456	17
132	24	30	5	10	2400	160	0.000937	25	4214	17
133	88	90	5	10	8800	320	0.000859	25	3534	17
134	71	120	1	10	7100	340	0.000614	25	2950	17
135	91	150	5	10	9100	320	0.000889	25	4859	17
136	19	20	5	10	1900	140	0.000969	25	3993	17
137	13	10	1	10	1300	340	0.000112	25	2461	17
138	20	20	0	16	5120	336	0.000177	25	3703	17
139	94	180	5	10	9400	320	0.000918	25	3439	17
140	85	200	0	8	5440	340	0.000735	25	3031	17
141	74	190	5	10	7400	300	0.000822	25	3294	17
142	58	180	1	10	5800	340	0.000502	25	2249	17
143	64	170	5	10	6400	280	0.000816	25	5913	17
144	12	9	5	10	1200	120	0.000833	25	4065	17
145	85	90	5	10	8500	320	0.000830	25	2738	17
146	60	120	0	10	6000	340	0.000519	25	7765	17
147	15	10	0	18	4860	336	0.000133	25	2664	17
148	78	100	0	8	4992	340	0.000675	25	3776	17
149	39	90	0	12	5616	336	0.000345	25	2875	17
150	69	60	5	10	6900	280	0.000880	25	3580	17
151	48	50	5	10	4800	240	0.000833	25	6800	17
152	93	100	5	10	9300	320	0.000908	25	3623	17
153	93	110	1	10	9300	340	0.000804	25	4785	17
154	61	90	0	10	6100	340	0.000528	25	6062	17
155	17	10	5	10	1700	140	0.000867	25	2192	17
156	33	30	0	12	4752	336	0.000292	25	2763	17
157	95	90	1	10	9500	340	0.000822	25	10000	17
158	68	60	1	10	6800	340	0.000588	25	3732	17
159	40	40	5	10	4000	220	0.000826	25	3478	17
160	67	50	5	10	6700	280	0.000855	25	2578	17
161	26	30	1	10	2600	340	0.000225	25	2506	17
162	23	20	0	14	4508	336	0.000204	25	4185	17
163	32	30	1	10	3200	340	0.000277	25	2958	17
164	48	40	0	10	4800	340	0.000415	25	3719	17
165	69	60	0	8	4416	340	0.000597	25	3413	17
166	79	90	1	10	7900	340	0.000683	25	6374	17
167	60	80	1	10	6000	340	0.000519	25	3648	17
168	90	100	0	8	5760	340	0.000779	25	2907	17
169	23	20	1	10	2300	340	0.000199	25	3225	17
170	68	50	5	10	6800	280	0.000867	25	2514	17
171	49	50	1	10	4900	340	0.000424	25	4136	17
172	24	20	1	10	2400	340	0.000208	25	2731	17
173	34	30	0	12	4896	336	0.000301	25	2525	17
174	20	10	5	10	2000	160	0.000781	25	3132	17
175	84	80	5	10	8400	320	0.000820	25	6120	17
176	58	70	0	10	5800	340	0.000502	25	3407	17
177	86	90	5	10	8600	320	0.000840	25	4362	17
178	77	100	1	10	7700	340	0.000666	25	3202	17
179	62	80	1	10	6200	340	0.000536	25	5142	17
180	10	8	0	22	4840	320	0.000098	25	2735	17
181	66	90	0	8	4224	340	0.000571	25	3354	17
182	70	100	1	10	7000	340	0.000606	25	4523	17
183	33	70	1	10	3300	340	0.000285	25	2807	17
184	26	30	0	14	5096	336	0.000230	25	5886	17
185	77	120	5	10	7700	300	0.000856	25	3227	17
186	36	60	5	10	3600	200	0.000900	25	2255	17
187	88	150	0	8	5632	340	0.000761	25	3231	17
188	52	70	5	10	5200	240	0.000903	25	4387	17
189	13	10	0	20	5200	320	0.000127	25	2450	17
190	21	20	1	10	2100	340	0.000182	25	2505	17
191	67	80	0	8	4288	340	0.000580	25	2666	17
192	74	90	1	10	7400	340	0.000640	25	2331	17
193	64	70	0	8	4096	340	0.000554	25	9643	17
194	65	90	1	10	6500	340	0.000562	25	3232	17
195	17	20	1	10	1700	340	0.000147	25	2921	17
196	89	90	0	8	5696	340	0.000770	25	3245	17
197	72	100	1	10	7200	340	0.000623	25	2098	17
198	82	100	0	8	5248	340	0.000709	25	4960	17
199	68	110	0	8	4352	340	0.000588	25	4173	17
200	39	40	1	10	3900	340	0.000337	25	3158	17
201	22	30	5	10	2200	160	0.000859	25	1944	17
202	9	7	0	24	5184	324	0.000086	25	2307	17
203	40	50	1	10	4000	340	0.000346	25	2802	17
204	27	40	0	14	5292	336	0.000239	25	1933	17
205	27	40	1	10	2700	340	0.000234	25	5870	17
206	36	50	0	12	5184	336	0.000319	25	2484	17
207	37	60	0	12	5328	336	0.000328	25	6381	17
208	54	60	5	10	5400	240	0.000937	25	2506	17
209	73	120	1	10	7300	340	0.000631	25	2450	17
210	38	60	0	12	5472	336	0.000337	25	4927	17
211	96	150	1	10	9600	340	0.000830	25	5558	17
212	99	140	1	10	9900	340	0.000856	25	2250	17
213	63	120	5	10	6300	260	0.000932	25	2273	17
214	18	10	0	16	4608	336	0.000159	25	2426	17
215	59	90	1	10	5900	340	0.000510	25	4784	17
216	72	90	0	8	4608	340	0.000623	25	2720	17
217	72	80	5	10	7200	280	0.000918	25	2563	17
218	30	50	1	10	3000	340	0.000260	25	2414	17
219	32	30	0	12	4608	336	0.000283	25	2229	17
220	28	50	1	10	2800	340	0.000242	25	4659	17
221	95	150	0	8	6080	340	0.000822	25	21269	17
222	87	140	0	8	5568	340	0.000753	25	4098	17
223	51	50	5	10	5100	240	0.000885	25	3380	17
224	17	20	0	18	5508	336	0.000151	25	2359	17
225	64	50	1	10	6400	340	0.000554	25	3484	17
226	53	60	5	10	5300	240	0.000920	25	2483	17
227	87	130	1	10	8700	340	0.000753	25	2834	17
228	19	20	1	10	1900	340	0.000164	25	2056	17
229	97	150	1	10	9700	340	0.000839	25	5148	17
230	70	100	5	10	7000	280	0.000893	25	4795	17
231	10	6	5	10	1000	100	0.001000	25	4019	17
232	92	150	1	10	9200	340	0.000796	25	7673	17
233	44	60	1	10	4400	340	0.000381	25	4037	17
234	69	90	1	10	6900	340	0.000597	25	2190	17
235	86	90	1	10	8600	340	0.000744	25	2435	17
236	29	50	5	10	2900	180	0.000895	25	3183	17
237	94	120	1	10	9400	340	0.000813	25	5807	17
238	99	170	5	10	9900	340	0.000856	25	4309	17
239	39	60	5	10	3900	220	0.000806	25	5558	17
240	74	90	0	8	4736	340	0.000640	25	3588	17
241	22	20	0	16	5632	336	0.000195	25	3512	17
242	44	40	0	10	4400	340	0.000381	25	9941	17
243	40	60	0	12	5760	336	0.000354	25	3932	17
244	16	30	0	18	5184	336	0.000142	25	8979	17
245	24	20	0	14	4704	336	0.000213	25	3357	17
246	38	40	5	10	3800	200	0.000950	25	3804	17
247	37	50	5	10	3700	200	0.000925	25	1757	17
248	31	50	0	12	4464	336	0.000275	25	2604	17
249	47	60	0	10	4700	340	0.000407	25	3167	17
250	81	90	5	10	8100	300	0.000900	25	2746	17
251	21	30	0	16	5376	336	0.000186	25	4201	17
252	63	90	0	8	4032	340	0.000545	25	5420	17
253	54	80	1	10	5400	340	0.000467	25	3202	17
254	90	120	5	10	9000	320	0.000879	25	3636	17
255	43	90	0	10	4300	340	0.000372	25	3291	17
256	45	70	0	10	4500	340	0.000389	25	5883	17
257	12	10	0	20	4800	320	0.000117	25	4961	17
258	89	100	5	10	8900	320	0.000869	25	9518	17
259	88	150	1	10	8800	340	0.000761	25	4790	17
260	70	120	0	8	4480	340	0.000606	25	8315	17
261	46	60	1	10	4600	340	0.000398	25	2693	17
262	50	70	0	10	5000	340	0.000433	25	4164	17
263	57	90	1	10	5700	340	0.000493	25	2311	17
264	73	100	0	8	4672	340	0.000631	25	3033	17
265	25	30	0	14	4900	336	0.000221	25	5057	17
266	25	40	1	10	2500	340	0.000216	25	4029	17
267	57	60	0	10	5700	340	0.000493	25	2532	17
268	27	20	5	10	2700	180	0.000833	25	6258	17
269	87	130	5	10	8700	320	0.000850	25	7897	17
270	43	120	1	10	4300	340	0.000372	25	6841	17
271	14	10	0	18	4536	336	0.000124	25	2887	17
272	47	40	5	10	4700	240	0.000816	25	3261	17
273	41	50	0	12	5904	336	0.000363	25	2698	17
274	16	20	5	10	1600	140	0.000816	25	2695	17
275	96	150	0	8	6144	340	0.000830	25	8885	17
276	13	30	5	10	1300	120	0.000903	25	4577	17
277	65	100	5	10	6500	280	0.000829	30	2854	17
278	92	160	5	10	9200	320	0.000898	30	3600	17
279	64	90	5	10	6400	280	0.000816	30	2448	17
280	20	20	1	10	2000	340	0.000173	30	2599	17
281	43	60	5	10	4300	220	0.000888	30	2992	17
282	56	80	5	10	5600	260	0.000828	30	2172	17
283	71	100	1	10	7100	340	0.000614	30	2552	17
284	33	50	5	10	3300	200	0.000825	30	3838	17
285	48	60	1	10	4800	340	0.000415	30	2247	17
286	50	70	0	10	5000	340	0.000433	30	2102	17
287	100	180	0	8	6400	340	0.000865	30	3754	17
288	34	40	5	10	3400	200	0.000850	30	2114	17
289	21	30	5	10	2100	160	0.000820	30	1646	17
290	45	60	5	10	4500	220	0.000930	30	2173	17
291	52	90	5	10	5200	240	0.000903	30	2710	17
292	23	20	0	14	4508	336	0.000204	30	1823	17
293	61	80	5	10	6100	260	0.000902	30	2301	17
294	51	70	5	10	5100	240	0.000885	30	2385	17
295	78	120	0	8	4992	340	0.000675	30	2483	17
296	13	8	0	20	5200	320	0.000127	30	3031	17
297	59	120	0	10	5900	340	0.000510	30	5637	17
298	41	50	5	10	4100	220	0.000847	30	2238	17
299	15	30	5	10	1500	140	0.000765	30	13267	17
300	71	150	5	10	7100	280	0.000906	30	5715	17
301	63	100	5	10	6300	260	0.000932	30	3767	17
302	76	130	5	10	7600	300	0.000844	30	2596	17
303	73	120	0	8	4672	340	0.000631	30	3280	17
304	17	20	0	18	5508	336	0.000151	30	3223	17
305	58	60	5	10	5800	260	0.000858	30	4190	17
306	87	120	1	10	8700	340	0.000753	30	8462	17
307	12	9	0	20	4800	320	0.000117	30	4309	17
308	80	150	1	10	8000	340	0.000692	30	6873	17
309	22	30	0	16	5632	336	0.000195	30	2086	17
310	71	160	0	8	4544	340	0.000614	30	5658	17
311	22	40	1	10	2200	340	0.000190	30	2610	17
312	64	140	0	8	4096	340	0.000554	30	6298	17
313	93	180	0	8	5952	340	0.000804	30	4755	17
314	59	90	5	10	5900	260	0.000873	30	3260	17
315	54	70	1	10	5400	340	0.000467	30	2572	17
316	40	50	5	10	4000	220	0.000826	30	3065	17
317	26	40	1	10	2600	340	0.000225	30	3430	17
318	100	NaN	1	10	10000	340	0.000865	30	9916	17
319	47	120	0	10	4700	340	0.000407	30	16312	17
320	49	80	5	10	4900	240	0.000851	30	3666	17
321	35	50	0	12	5040	336	0.000310	30	3570	17
322	99	160	0	8	6336	340	0.000856	30	4092	17
323	78	120	5	10	7800	300	0.000867	30	2779	17
324	21	20	0	16	5376	336	0.000186	30	2164	17
325	88	140	0	8	5632	340	0.000761	30	3626	17
326	28	30	5	10	2800	180	0.000864	30	2276	17
327	9	6	5	10	900	100	0.000900	30	4064	17
328	94	150	1	10	9400	340	0.000813	30	6899	17
329	55	60	0	10	5500	340	0.000476	30	2491	17
330	82	140	1	10	8200	340	0.000709	30	2601	17
331	15	20	0	18	4860	336	0.000133	30	2114	17
332	16	20	0	18	5184	336	0.000142	30	2908	17
333	21	30	1	10	2100	340	0.000182	30	3446	17
334	41	40	0	12	5904	336	0.000363	30	2097	17
335	14	20	5	10	1400	120	0.000972	30	2780	17
336	60	60	1	10	6000	340	0.000519	30	4823	17
337	99	130	1	10	9900	340	0.000856	30	5350	17
338	32	40	5	10	3200	200	0.000800	30	2909	17
339	46	100	1	10	4600	340	0.000398	30	3415	17
340	27	30	0	14	5292	336	0.000239	30	4620	17
341	57	70	0	10	5700	340	0.000493	30	3098	17
342	16	20	1	10	1600	340	0.000138	30	2261	17
343	89	120	1	10	8900	340	0.000770	30	5291	17
344	96	140	1	10	9600	340	0.000830	30	6763	17
345	34	30	0	12	4896	336	0.000301	30	2791	17
346	80	70	5	10	8000	300	0.000889	30	3221	17
347	35	60	1	10	3500	340	0.000303	30	4868	17
348	67	100	0	8	4288	340	0.000580	30	3369	17
349	56	100	1	10	5600	340	0.000484	30	3718	17
350	53	60	5	10	5300	240	0.000920	30	3900	17
351	97	120	1	10	9700	340	0.000839	30	5386	17
352	18	20	0	16	4608	336	0.000159	30	3206	17
353	14	20	1	10	1400	340	0.000121	30	6301	17
354	70	50	5	10	7000	280	0.000893	30	4358	17
355	45	60	1	10	4500	340	0.000389	30	2937	17
356	81	110	1	10	8100	340	0.000701	30	8253	17
357	31	30	5	10	3100	180	0.000957	30	3414	17
358	38	70	1	10	3800	340	0.000329	30	3717	17
359	35	40	5	10	3500	200	0.000875	30	2758	17
360	63	80	0	8	4032	340	0.000545	30	7972	17
361	16	10	5	10	1600	140	0.000816	30	2728	17
362	14	10	0	18	4536	336	0.000124	30	3390	17
363	62	50	0	8	3968	340	0.000536	30	4050	17
364	48	40	5	10	4800	240	0.000833	30	4557	17
365	65	100	0	8	4160	340	0.000562	30	5058	17
366	9	10	1	10	900	340	0.000078	30	4560	17
367	69	80	0	8	4416	340	0.000597	30	4025	17
368	46	70	0	10	4600	340	0.000398	30	3599	17
369	50	50	5	10	5000	240	0.000868	30	2236	17
370	82	70	5	10	8200	300	0.000911	30	3357	17
371	94	130	0	8	6016	340	0.000813	30	2943	17
372	13	20	1	10	1300	340	0.000112	30	2494	17
373	87	80	5	10	8700	320	0.000850	30	3505	17
374	24	30	0	14	4704	336	0.000213	30	3186	17
375	55	40	5	10	5500	260	0.000814	30	2840	17
376	85	90	0	8	5440	340	0.000735	30	3300	17
377	84	120	5	10	8400	320	0.000820	30	5848	17
378	23	30	5	10	2300	160	0.000898	30	2376	17
379	74	120	0	8	4736	340	0.000640	30	4458	17
380	88	140	5	10	8800	320	0.000859	30	4779	17
381	83	150	1	10	8300	340	0.000718	30	2655	17
382	31	50	1	10	3100	340	0.000268	30	8180	17
383	100	120	5	10	10000	340	0.000865	30	7106	17
384	41	80	1	10	4100	340	0.000355	30	3755	17
385	77	70	1	10	7700	340	0.000666	30	5739	17
386	59	70	1	10	5900	340	0.000510	30	5273	17
387	86	100	1	10	8600	340	0.000744	30	4909	17
388	91	120	0	8	5824	340	0.000787	30	2786	17
389	97	140	5	10	9700	340	0.000839	30	6260	17
390	10	10	1	10	1000	340	0.000087	30	3801	17
391	93	40	5	10	9300	320	0.000908	30	4879	17
392	72	70	1	10	7200	340	0.000623	30	3733	17
393	11	10	1	10	1100	340	0.000095	30	8587	17
394	18	20	5	10	1800	140	0.000918	30	4112	17
395	19	20	5	10	1900	140	0.000969	30	2800	17
396	36	30	0	12	5184	336	0.000319	30	2633	17
397	90	90	1	10	9000	340	0.000779	30	3506	17
398	98	110	5	10	9800	340	0.000848	30	4954	17
399	42	70	1	10	4200	340	0.000363	30	8648	17
400	26	30	5	10	2600	180	0.000802	30	2448	17
401	97	120	0	8	6208	340	0.000839	30	6476	17
402	98	140	1	10	9800	340	0.000848	30	3112	17
403	87	150	0	8	5568	340	0.000753	30	3582	17
404	22	30	5	10	2200	160	0.000859	30	5178	17
405	96	90	5	10	9600	340	0.000830	30	3113	17
406	24	30	1	10	2400	340	0.000208	30	3020	17
407	73	70	1	10	7300	340	0.000631	30	9682	17
408	38	30	0	12	5472	336	0.000337	30	3438	17
409	84	100	1	10	8400	340	0.000727	30	4468	17
410	52	80	1	10	5200	340	0.000450	30	4544	17
411	70	70	0	8	4480	340	0.000606	30	5631	17
412	56	60	0	10	5600	340	0.000484	30	3405	17
413	39	40	5	10	3900	220	0.000806	30	2566	17
414	29	40	0	14	5684	336	0.000257	30	3388	17
415	34	30	1	10	3400	340	0.000294	30	3770	17
416	81	70	0	8	5184	340	0.000701	30	3868	17
417	53	70	0	10	5300	340	0.000458	30	6040	17
418	46	50	5	10	4600	240	0.000799	30	2760	17
419	44	60	1	10	4400	340	0.000381	30	2145	17
420	53	70	1	10	5300	340	0.000458	30	2342	17
421	90	90	5	10	9000	320	0.000879	30	2928	17
422	44	60	5	10	4400	220	0.000909	30	3960	17
423	99	100	5	10	9900	340	0.000856	30	2916	17
424	66	90	5	10	6600	280	0.000842	30	3646	17
425	9	9	0	24	5184	324	0.000086	30	3294	17
426	12	10	1	10	1200	340	0.000104	30	2453	17
427	40	40	1	10	4000	340	0.000346	30	3971	17
428	74	90	1	10	7400	340	0.000640	30	4967	17
429	19	30	1	10	1900	340	0.000164	30	2821	17
430	30	40	1	10	3000	340	0.000260	30	2198	17
431	42	50	0	10	4200	340	0.000363	30	2803	17
432	70	70	1	10	7000	340	0.000606	30	3499	17
433	23	30	1	10	2300	340	0.000199	30	2427	17
434	77	70	5	10	7700	300	0.000856	30	6631	17
435	76	90	0	8	4864	340	0.000657	30	4746	17
436	33	40	0	12	4752	336	0.000292	30	6415	17
437	69	70	5	10	6900	280	0.000880	30	4990	17
438	75	100	0	8	4800	340	0.000649	30	7647	17
439	73	120	5	10	7300	300	0.000811	30	2848	17
440	72	140	0	8	4608	340	0.000623	30	7464	17
441	72	60	5	10	7200	280	0.000918	30	3376	17
442	85	100	5	10	8500	320	0.000830	30	7541	17
443	76	100	1	10	7600	340	0.000657	30	4745	17
444	50	60	1	10	5000	340	0.000433	30	3959	17
445	37	40	0	12	5328	336	0.000328	30	2421	17
446	79	90	0	8	5056	340	0.000683	30	3004	17
447	54	60	5	10	5400	240	0.000937	30	2777	17
448	61	60	0	10	6100	340	0.000528	30	6479	17
449	42	50	5	10	4200	220	0.000868	30	2473	17
450	85	90	1	10	8500	340	0.000735	30	4778	17
451	66	110	1	10	6600	340	0.000571	30	3867	17
452	77	120	0	8	4928	340	0.000666	30	3052	17
453	88	140	1	10	8800	340	0.000761	30	4161	17
454	17	20	1	10	1700	340	0.000147	30	5257	17
455	60	70	5	10	6000	260	0.000888	30	5054	17
456	49	50	0	10	4900	340	0.000424	30	5301	17
457	63	60	1	10	6300	340	0.000545	30	2484	17
458	28	50	1	10	2800	340	0.000242	30	6007	17
459	60	60	0	10	6000	340	0.000519	30	3085	17
460	25	30	1	10	2500	340	0.000216	30	7128	17
461	39	40	0	12	5616	336	0.000345	30	2600	17
462	65	80	1	10	6500	340	0.000562	30	2620	17
463	74	100	5	10	7400	300	0.000822	30	4745	17
464	51	80	0	10	5100	340	0.000441	30	2931	17
465	69	90	1	10	6900	340	0.000597	30	3405	17
466	55	60	1	10	5500	340	0.000476	30	2710	17
467	39	50	1	10	3900	340	0.000337	30	2408	17
468	62	70	1	10	6200	340	0.000536	30	5517	17
469	84	120	0	8	5376	340	0.000727	30	9078	17
470	66	80	0	8	4224	340	0.000571	30	4204	17
471	33	40	1	10	3300	340	0.000285	30	2546	17
472	91	90	5	10	9100	320	0.000889	30	4744	17
473	36	40	5	10	3600	200	0.000900	30	2652	17
474	75	90	1	10	7500	340	0.000649	30	4164	17
475	79	100	5	10	7900	300	0.000878	30	3518	17
476	67	90	1	10	6700	340	0.000580	30	9238	17
477	83	90	0	8	5312	340	0.000718	30	7076	17
478	48	50	0	10	4800	340	0.000415	30	2633	17
479	75	90	5	10	7500	300	0.000833	30	6124	17
480	68	80	1	10	6800	340	0.000588	30	5351	17
481	25	30	5	10	2500	160	0.000977	30	2230	17
482	40	30	0	12	5760	336	0.000354	30	3087	17
483	93	80	1	10	9300	340	0.000804	30	4901	17
484	62	60	5	10	6200	260	0.000917	30	6330	17
485	38	50	5	10	3800	200	0.000950	30	2666	17
486	17	30	5	10	1700	140	0.000867	30	5397	17
487	20	20	5	10	2000	160	0.000781	30	2128	17
488	30	30	5	10	3000	180	0.000926	30	1850	17
489	82	100	0	8	5248	340	0.000709	30	5023	17
490	24	30	5	10	2400	160	0.000937	30	2525	17
491	90	100	0	8	5760	340	0.000779	30	5387	17
492	20	20	0	16	5120	336	0.000177	30	2251	17
493	19	20	0	16	4864	336	0.000168	30	2666	17
494	10	8	5	10	1000	100	0.001000	30	4298	17
495	57	40	5	10	5700	260	0.000843	30	5563	17
496	89	100	0	8	5696	340	0.000770	30	13326	17
497	94	110	5	10	9400	320	0.000918	30	5960	17
498	81	90	5	10	8100	300	0.000900	30	5493	17
499	27	40	1	10	2700	340	0.000234	30	8764	17
500	37	50	1	10	3700	340	0.000320	30	5118	17
501	43	40	1	10	4300	340	0.000372	30	3971	17
502	37	40	5	10	3700	200	0.000925	30	5994	17
503	44	40	0	10	4400	340	0.000381	30	13344	17
504	11	10	5	10	1100	120	0.000764	30	2673	17
505	64	60	1	10	6400	340	0.000554	30	4535	17
506	32	40	1	10	3200	340	0.000277	30	6502	17
507	47	50	5	10	4700	240	0.000816	30	2098	17
508	15	20	1	10	1500	340	0.000130	30	3225	17
509	43	40	0	10	4300	340	0.000372	30	2025	17
510	18	20	1	10	1800	340	0.000156	30	1948	17
511	51	40	1	10	5100	340	0.000441	30	2818	17
512	61	60	1	10	6100	340	0.000528	30	2041	17
513	68	70	5	10	6800	280	0.000867	30	8661	17
514	11	9	0	22	5324	320	0.000107	30	3497	17
515	58	50	1	10	5800	340	0.000502	30	2613	17
516	10	10	0	22	4840	320	0.000098	30	2061	17
517	31	20	0	12	4464	336	0.000275	30	2043	17
518	89	80	5	10	8900	320	0.000869	30	4437	17
519	32	40	0	12	4608	336	0.000283	30	6759	17
520	95	100	1	10	9500	340	0.000822	30	4669	17
521	79	90	1	10	7900	340	0.000683	30	3872	17
522	12	20	5	10	1200	120	0.000833	30	2849	17
523	47	40	1	10	4700	340	0.000407	30	2579	17
524	58	60	0	10	5800	340	0.000502	30	2600	17
525	29	50	1	10	2900	340	0.000251	30	4238	17
526	92	70	0	8	5888	340	0.000796	30	3581	17
527	49	60	1	10	4900	340	0.000424	30	4128	17
528	95	70	0	8	6080	340	0.000822	30	9120	17
529	98	80	0	8	6272	340	0.000848	30	3531	17
530	86	70	5	10	8600	320	0.000840	30	3414	17
531	68	50	0	8	4352	340	0.000588	30	5367	17
532	45	40	0	10	4500	340	0.000389	30	2696	17
533	67	50	5	10	6700	280	0.000855	30	4963	17
534	57	60	1	10	5700	340	0.000493	30	2583	17
535	83	70	5	10	8300	300	0.000922	30	2974	17
536	25	30	0	14	4900	336	0.000221	30	4364	17
537	29	30	5	10	2900	180	0.000895	30	5647	17
538	13	10	5	10	1300	120	0.000903	30	3683	17
539	26	20	0	14	5096	336	0.000230	30	3281	17
540	78	70	1	10	7800	340	0.000675	30	6713	17
541	36	30	1	10	3600	340	0.000311	30	2849	17
542	52	50	0	10	5200	340	0.000450	30	2763	17
543	28	40	0	14	5488	336	0.000248	30	2314	17
544	91	70	1	10	9100	340	0.000787	30	2984	17
545	30	30	0	12	4320	336	0.000266	30	4442	17
546	80	100	0	8	5120	340	0.000692	30	4775	17
547	86	90	0	8	5504	340	0.000744	30	3048	17
548	54	60	0	10	5400	340	0.000467	30	4538	17
549	92	100	1	10	9200	340	0.000796	30	5249	17
550	96	130	0	8	6144	340	0.000830	30	2891	17
551	27	40	5	10	2700	180	0.000833	30	2580	17
552	95	110	5	10	9500	340	0.000822	30	6036	17
1	30	40	0	12	4320	336	0.000266	25	3651	22
2	27	40	1	10	2700	340	0.000234	25	2987	22
3	59	100	0	10	5900	340	0.000510	25	3552	22
4	14	10	0	18	4536	336	0.000124	25	2530	22
5	50	100	1	10	5000	340	0.000433	25	2635	22
6	58	80	1	10	5800	340	0.000502	25	3373	22
7	42	50	0	10	4200	340	0.000363	25	4961	22
8	9	7	0	24	5184	324	0.000086	25	2907	22
9	27	20	0	14	5292	336	0.000239	25	2897	22
10	99	200	5	10	9900	340	0.000856	25	2464	22
11	60	150	1	10	6000	340	0.000519	25	2384	22
12	69	100	5	10	6900	280	0.000880	25	3223	22
13	25	50	5	10	2500	160	0.000977	25	5106	22
14	32	30	1	10	3200	340	0.000277	25	2730	22
15	88	150	5	10	8800	320	0.000859	25	2925	22
16	13	30	1	10	1300	340	0.000112	25	3175	22
17	81	150	0	8	5184	340	0.000701	25	2350	22
18	28	50	5	10	2800	180	0.000864	25	7780	22
19	85	150	1	10	8500	340	0.000735	25	2180	22
20	70	150	5	10	7000	280	0.000893	25	4162	22
21	37	50	1	10	3700	340	0.000320	25	4867	22
22	77	150	5	10	7700	300	0.000856	25	2634	22
23	75	100	0	8	4800	340	0.000649	25	2799	22
24	91	150	5	10	9100	320	0.000889	25	2321	22
25	32	30	0	12	4608	336	0.000283	25	2732	22
26	64	80	5	10	6400	280	0.000816	25	2907	22
27	67	100	5	10	6700	280	0.000855	25	3359	22
28	77	150	0	8	4928	340	0.000666	25	4218	22
29	79	160	5	10	7900	300	0.000878	25	3507	22
30	26	30	5	10	2600	180	0.000802	25	2369	22
31	22	30	1	10	2200	340	0.000190	25	2299	22
32	15	10	1	10	1500	340	0.000130	25	2215	22
33	79	150	0	8	5056	340	0.000683	25	3262	22
34	75	100	5	10	7500	300	0.000833	25	4721	22
35	18	30	1	10	1800	340	0.000156	25	2359	22
36	44	50	5	10	4400	220	0.000909	25	2351	22
37	25	30	0	14	4900	336	0.000221	25	2240	22
38	10	10	0	22	4840	320	0.000098	25	1940	22
39	96	150	1	10	9600	340	0.000830	25	4117	22
40	91	200	0	8	5824	340	0.000787	25	2234	22
41	51	100	0	10	5100	340	0.000441	25	2569	22
42	84	150	0	8	5376	340	0.000727	25	2711	22
43	97	120	5	10	9700	340	0.000839	25	4203	22
44	95	200	1	10	9500	340	0.000822	25	2736	22
45	73	100	1	10	7300	340	0.000631	25	3266	22
46	52	80	0	10	5200	340	0.000450	25	4174	22
47	93	100	0	8	5952	340	0.000804	25	3906	22
48	26	50	1	10	2600	340	0.000225	25	4727	22
49	65	100	0	8	4160	340	0.000562	25	3044	22
50	42	50	5	10	4200	220	0.000868	25	2891	22
51	11	10	5	10	1100	120	0.000764	25	2767	22
52	17	20	0	18	5508	336	0.000151	25	3231	22
53	70	100	1	10	7000	340	0.000606	25	3865	22
54	29	70	1	10	2900	340	0.000251	25	4913	22
55	37	40	5	10	3700	200	0.000925	25	4474	22
56	92	150	5	10	9200	320	0.000898	25	3633	22
57	18	30	0	16	4608	336	0.000159	25	5197	22
58	47	60	0	10	4700	340	0.000407	25	4399	22
59	85	150	0	8	5440	340	0.000735	25	2976	22
60	14	10	5	10	1400	120	0.000972	25	2644	22
61	69	120	0	8	4416	340	0.000597	25	5456	22
62	57	80	5	10	5700	260	0.000843	25	4069	22
63	84	170	1	10	8400	340	0.000727	25	4198	22
64	67	100	1	10	6700	340	0.000580	25	4165	22
65	60	80	5	10	6000	260	0.000888	25	3994	22
66	17	20	5	10	1700	140	0.000867	25	2220	22
67	83	120	0	8	5312	340	0.000718	25	6205	22
68	21	30	5	10	2100	160	0.000820	25	3548	22
69	81	150	1	10	8100	340	0.000701	25	6230	22
70	62	90	0	8	3968	340	0.000536	25	4049	22
71	22	30	5	10	2200	160	0.000859	25	4115	22
72	82	90	1	10	8200	340	0.000709	25	4934	22
73	78	150	0	8	4992	340	0.000675	25	2882	22
74	14	30	1	10	1400	340	0.000121	25	3202	22
75	91	150	1	10	9100	340	0.000787	25	3883	22
76	21	30	0	16	5376	336	0.000186	25	3413	22
77	29	50	5	10	2900	180	0.000895	25	2435	22
78	19	30	0	16	4864	336	0.000168	25	2422	22
79	83	180	1	10	8300	340	0.000718	25	3109	22
80	89	200	0	8	5696	340	0.000770	25	2944	22
81	98	250	0	8	6272	340	0.000848	25	3591	22
82	50	80	5	10	5000	240	0.000868	25	3842	22
83	53	100	1	10	5300	340	0.000458	25	2393	22
84	46	120	0	10	4600	340	0.000398	25	4117	22
85	80	150	0	8	5120	340	0.000692	25	5399	22
86	54	80	1	10	5400	340	0.000467	25	4604	22
87	16	30	1	10	1600	340	0.000138	25	2154	22
88	56	60	1	10	5600	340	0.000484	25	3893	22
89	24	50	1	10	2400	340	0.000208	25	3146	22
90	40	40	0	12	5760	336	0.000354	25	3636	22
91	73	100	0	8	4672	340	0.000631	25	3541	22
92	34	40	5	10	3400	200	0.000850	25	3249	22
93	45	60	0	10	4500	340	0.000389	25	2580	22
94	12	20	1	10	1200	340	0.000104	25	3425	22
95	38	40	0	12	5472	336	0.000337	25	2624	22
96	40	60	5	10	4000	220	0.000826	25	3163	22
97	73	90	5	10	7300	300	0.000811	25	3762	22
98	90	120	1	10	9000	340	0.000779	25	6506	22
99	90	160	0	8	5760	340	0.000779	25	3593	22
100	32	40	5	10	3200	200	0.000800	25	2826	22
101	30	40	5	10	3000	180	0.000926	25	2768	22
102	94	150	5	10	9400	320	0.000918	25	2928	22
103	20	30	5	10	2000	160	0.000781	25	2736	22
104	51	60	5	10	5100	240	0.000885	25	2844	22
105	72	90	1	10	7200	340	0.000623	25	4724	22
106	22	20	0	16	5632	336	0.000195	25	2902	22
107	31	40	0	12	4464	336	0.000275	25	2645	22
108	41	50	1	10	4100	340	0.000355	25	5283	22
109	12	10	0	20	4800	320	0.000117	25	3046	22
110	96	150	5	10	9600	340	0.000830	25	4092	22
111	94	150	1	10	9400	340	0.000813	25	3195	22
112	51	90	1	10	5100	340	0.000441	25	3571	22
113	59	90	1	10	5900	340	0.000510	25	4819	22
114	33	60	0	12	4752	336	0.000292	25	6803	22
115	28	30	0	14	5488	336	0.000248	25	4102	22
116	68	60	1	10	6800	340	0.000588	25	4461	22
117	59	90	5	10	5900	260	0.000873	25	3384	22
118	13	10	5	10	1300	120	0.000903	25	2332	22
119	96	150	0	8	6144	340	0.000830	25	8282	22
120	87	120	5	10	8700	320	0.000850	25	3076	22
121	38	90	1	10	3800	340	0.000329	25	2977	22
122	76	120	5	10	7600	300	0.000844	25	4162	22
123	19	20	1	10	1900	340	0.000164	25	2510	22
124	88	90	0	8	5632	340	0.000761	25	2677	22
125	63	120	1	10	6300	340	0.000545	25	3283	22
126	28	30	1	10	2800	340	0.000242	25	3507	22
127	55	90	1	10	5500	340	0.000476	25	2800	22
128	41	40	5	10	4100	220	0.000847	25	4492	22
129	39	60	1	10	3900	340	0.000337	25	3837	22
130	82	100	5	10	8200	300	0.000911	25	3861	22
131	36	60	5	10	3600	200	0.000900	25	3022	22
132	36	50	1	10	3600	340	0.000311	25	3211	22
133	79	100	1	10	7900	340	0.000683	25	2608	22
134	52	90	5	10	5200	240	0.000903	25	2826	22
135	86	150	0	8	5504	340	0.000744	25	2588	22
136	35	60	0	12	5040	336	0.000310	25	3766	22
137	86	80	5	10	8600	320	0.000840	25	3074	22
138	75	100	1	10	7500	340	0.000649	25	3499	22
139	98	90	1	10	9800	340	0.000848	25	2410	22
140	57	60	0	10	5700	340	0.000493	25	4451	22
141	53	70	5	10	5300	240	0.000920	25	4275	22
142	15	20	0	18	4860	336	0.000133	25	2497	22
143	78	80	1	10	7800	340	0.000675	25	4576	22
144	71	70	1	10	7100	340	0.000614	25	4791	22
145	94	100	0	8	6016	340	0.000813	25	6195	22
146	74	90	5	10	7400	300	0.000822	25	6343	22
147	35	50	1	10	3500	340	0.000303	25	4178	22
148	84	100	5	10	8400	320	0.000820	25	3020	22
149	33	60	5	10	3300	200	0.000825	25	4330	22
150	9	7	5	10	900	100	0.000900	25	2901	22
151	47	30	5	10	4700	240	0.000816	25	4441	22
152	33	40	1	10	3300	340	0.000285	25	5402	22
153	65	80	1	10	6500	340	0.000562	25	4504	22
154	27	30	5	10	2700	180	0.000833	25	3733	22
155	65	60	5	10	6500	280	0.000829	25	4022	22
156	24	30	5	10	2400	160	0.000937	25	2844	22
157	49	60	0	10	4900	340	0.000424	25	3204	22
158	12	20	5	10	1200	120	0.000833	25	2259	22
159	93	100	5	10	9300	320	0.000908	25	3739	22
160	68	100	5	10	6800	280	0.000867	25	3483	22
161	23	30	0	14	4508	336	0.000204	25	2530	22
162	74	120	0	8	4736	340	0.000640	25	3698	22
163	48	100	1	10	4800	340	0.000415	25	2845	22
164	46	80	1	10	4600	340	0.000398	25	3078	22
165	72	100	5	10	7200	280	0.000918	25	3763	22
166	10	20	1	10	1000	340	0.000087	25	3188	22
167	67	80	0	8	4288	340	0.000580	25	6266	22
168	93	100	1	10	9300	340	0.000804	25	2250	22
169	54	60	5	10	5400	240	0.000937	25	3036	22
170	74	100	1	10	7400	340	0.000640	25	3783	22
171	54	80	0	10	5400	340	0.000467	25	3012	22
172	80	80	1	10	8000	340	0.000692	25	5842	22
173	46	70	5	10	4600	240	0.000799	25	3384	22
174	95	100	5	10	9500	340	0.000822	25	2435	22
175	55	80	5	10	5500	260	0.000814	25	2486	22
176	20	20	1	10	2000	340	0.000173	25	5451	22
177	100	90	1	10	10000	340	0.000865	25	4053	22
178	38	40	5	10	3800	200	0.000950	25	4028	22
179	48	70	5	10	4800	240	0.000833	25	3339	22
180	49	80	1	10	4900	340	0.000424	25	4670	22
181	71	90	5	10	7100	280	0.000906	25	4490	22
182	47	60	1	10	4700	340	0.000407	25	5311	22
183	89	100	5	10	8900	320	0.000869	25	4595	22
184	82	120	0	8	5248	340	0.000709	25	2355	22
185	45	60	5	10	4500	220	0.000930	25	3860	22
186	48	40	0	10	4800	340	0.000415	25	4188	22
187	49	80	5	10	4900	240	0.000851	25	2644	22
188	44	80	1	10	4400	340	0.000381	25	2250	22
189	66	80	1	10	6600	340	0.000571	25	3646	22
190	97	100	0	8	6208	340	0.000839	25	3412	22
191	43	60	1	10	4300	340	0.000372	25	4476	22
192	16	20	0	18	5184	336	0.000142	25	1975	22
193	35	30	5	10	3500	200	0.000875	25	4575	22
194	98	90	5	10	9800	340	0.000848	25	3204	22
195	77	100	1	10	7700	340	0.000666	25	2399	22
196	29	30	0	14	5684	336	0.000257	25	3538	22
197	11	8	1	10	1100	340	0.000095	25	3312	22
198	83	100	5	10	8300	300	0.000922	25	5552	22
199	80	120	5	10	8000	300	0.000889	25	2446	22
200	11	10	0	22	5324	320	0.000107	25	1986	22
201	61	80	1	10	6100	340	0.000528	25	3708	22
202	43	50	5	10	4300	220	0.000888	25	3154	22
203	58	90	0	10	5800	340	0.000502	25	5020	22
204	42	30	1	10	4200	340	0.000363	25	3203	22
205	86	100	1	10	8600	340	0.000744	25	2571	22
206	76	120	1	10	7600	340	0.000657	25	5315	22
207	55	50	0	10	5500	340	0.000476	25	3621	22
208	34	40	1	10	3400	340	0.000294	25	3439	22
209	62	50	5	10	6200	260	0.000917	25	4479	22
210	50	80	0	10	5000	340	0.000433	25	3866	22
211	53	60	0	10	5300	340	0.000458	25	4368	22
212	92	100	1	10	9200	340	0.000796	25	4119	22
213	18	30	5	10	1800	140	0.000918	25	2542	22
214	34	60	0	12	4896	336	0.000301	25	3727	22
215	16	20	5	10	1600	140	0.000816	25	3490	22
216	26	50	0	14	5096	336	0.000230	25	2263	22
217	58	100	5	10	5800	260	0.000858	25	2598	22
218	66	80	5	10	6600	280	0.000842	25	4726	22
219	90	90	5	10	9000	320	0.000879	25	6205	22
220	23	20	1	10	2300	340	0.000199	25	5084	22
221	63	100	0	8	4032	340	0.000545	25	3018	22
222	60	100	0	10	6000	340	0.000519	25	3176	22
223	99	150	1	10	9900	340	0.000856	25	3604	22
224	61	150	0	10	6100	340	0.000528	25	3191	22
225	78	200	5	10	7800	300	0.000867	25	2173	22
226	19	30	5	10	1900	140	0.000969	25	2081	22
227	92	150	0	8	5888	340	0.000796	25	3257	22
228	70	100	0	8	4480	340	0.000606	25	3989	22
229	36	60	0	12	5184	336	0.000319	25	2835	22
230	21	20	1	10	2100	340	0.000182	25	3629	22
231	85	80	5	10	8500	320	0.000830	25	9704	22
232	88	100	1	10	8800	340	0.000761	25	3053	22
233	71	80	0	8	4544	340	0.000614	25	3172	22
234	97	100	1	10	9700	340	0.000839	25	4534	22
235	76	100	0	8	4864	340	0.000657	25	6051	22
236	64	120	1	10	6400	340	0.000554	25	5715	22
237	100	150	0	8	6400	340	0.000865	25	3081	22
238	62	80	1	10	6200	340	0.000536	25	3971	22
239	13	20	0	20	5200	320	0.000127	25	7374	22
240	100	80	5	10	10000	340	0.000865	25	5731	22
241	24	30	0	14	4704	336	0.000213	25	3380	22
242	87	120	1	10	8700	340	0.000753	25	5861	22
243	68	80	0	8	4352	340	0.000588	25	3816	22
244	31	30	5	10	3100	180	0.000957	25	3501	22
245	39	60	5	10	3900	220	0.000806	25	3256	22
246	20	20	0	16	5120	336	0.000177	25	3256	22
247	52	60	1	10	5200	340	0.000450	25	3863	22
248	61	90	5	10	6100	260	0.000902	25	2443	22
249	72	120	0	8	4608	340	0.000623	25	3383	22
250	40	80	1	10	4000	340	0.000346	25	3403	22
251	9	10	1	10	900	340	0.000078	25	3167	22
252	69	80	1	10	6900	340	0.000597	25	4429	22
253	44	80	0	10	4400	340	0.000381	25	4765	22
254	10	10	5	10	1000	100	0.001000	25	3782	22
255	37	50	0	12	5328	336	0.000328	25	3259	22
256	64	100	0	8	4096	340	0.000554	25	4683	22
257	57	100	1	10	5700	340	0.000493	25	4031	22
258	95	120	0	8	6080	340	0.000822	25	2963	22
259	56	80	5	10	5600	260	0.000828	25	2867	22
260	23	30	5	10	2300	160	0.000898	25	2008	22
261	25	40	1	10	2500	340	0.000216	25	4281	22
262	66	120	0	8	4224	340	0.000571	25	3027	22
263	45	90	1	10	4500	340	0.000389	25	5670	22
264	63	80	5	10	6300	260	0.000932	25	5268	22
265	39	60	0	12	5616	336	0.000345	25	7355	22
266	99	120	0	8	6336	340	0.000856	25	2948	22
267	87	120	0	8	5568	340	0.000753	25	3412	22
268	41	70	0	12	5904	336	0.000363	25	3942	22
269	31	60	1	10	3100	340	0.000268	25	3519	22
270	89	120	1	10	8900	340	0.000770	25	2662	22
271	30	80	1	10	3000	340	0.000260	25	4149	22
272	81	100	5	10	8100	300	0.000900	25	5501	22
273	17	20	1	10	1700	340	0.000147	25	2102	22
274	15	20	5	10	1500	140	0.000765	25	1992	22
275	43	50	0	10	4300	340	0.000372	25	4410	22
276	56	80	0	10	5600	340	0.000484	25	4913	22
277	94	90	1	10	9400	340	0.000813	30	3518	22
278	75	80	0	8	4800	340	0.000649	30	5345	22
279	44	60	1	10	4400	340	0.000381	30	2361	22
280	74	100	1	10	7400	340	0.000640	30	3390	22
281	25	20	0	14	4900	336	0.000221	30	2418	22
282	31	40	5	10	3100	180	0.000957	30	3277	22
283	44	60	0	10	4400	340	0.000381	30	3611	22
284	26	50	1	10	2600	340	0.000225	30	4833	22
285	59	80	0	10	5900	340	0.000510	30	3733	22
286	84	100	1	10	8400	340	0.000727	30	6780	22
287	91	120	5	10	9100	320	0.000889	30	4064	22
288	14	9	5	10	1400	120	0.000972	30	3404	22
289	41	40	1	10	4100	340	0.000355	30	4120	22
290	10	7	5	10	1000	100	0.001000	30	3366	22
291	49	90	1	10	4900	340	0.000424	30	4046	22
292	62	120	0	8	3968	340	0.000536	30	3502	22
293	19	30	0	16	4864	336	0.000168	30	4863	22
294	56	80	5	10	5600	260	0.000828	30	3445	22
295	40	70	1	10	4000	340	0.000346	30	5295	22
296	22	50	0	16	5632	336	0.000195	30	9267	22
297	55	80	0	10	5500	340	0.000476	30	3676	22
298	30	40	5	10	3000	180	0.000926	30	6916	22
299	97	150	0	8	6208	340	0.000839	30	3689	22
300	59	60	5	10	5900	260	0.000873	30	4294	22
301	50	60	5	10	5000	240	0.000868	30	3315	22
302	34	40	0	12	4896	336	0.000301	30	5960	22
303	48	90	0	10	4800	340	0.000415	30	3309	22
304	18	20	1	10	1800	340	0.000156	30	2786	22
305	37	50	1	10	3700	340	0.000320	30	3705	22
306	62	80	5	10	6200	260	0.000917	30	3339	22
307	21	30	0	16	5376	336	0.000186	30	4696	22
308	66	70	5	10	6600	280	0.000842	30	4716	22
309	57	100	0	10	5700	340	0.000493	30	4037	22
310	9	8	0	24	5184	324	0.000086	30	3354	22
311	57	90	5	10	5700	260	0.000843	30	3064	22
312	51	80	1	10	5100	340	0.000441	30	2940	22
313	12	10	0	20	4800	320	0.000117	30	2787	22
314	19	20	1	10	1900	340	0.000164	30	3350	22
315	36	30	0	12	5184	336	0.000319	30	3457	22
316	82	80	0	8	5248	340	0.000709	30	4054	22
317	53	80	5	10	5300	240	0.000920	30	4224	22
318	84	100	5	10	8400	320	0.000820	30	3568	22
319	98	200	5	10	9800	340	0.000848	30	2711	22
320	31	40	0	12	4464	336	0.000275	30	3022	22
321	17	30	0	18	5508	336	0.000151	30	2275	22
322	38	50	0	12	5472	336	0.000337	30	9957	22
323	73	80	0	8	4672	340	0.000631	30	2935	22
324	55	70	5	10	5500	260	0.000814	30	5174	22
325	82	100	5	10	8200	300	0.000911	30	3359	22
326	83	120	0	8	5312	340	0.000718	30	2833	22
327	61	80	0	10	6100	340	0.000528	30	3690	22
328	42	50	0	10	4200	340	0.000363	30	3224	22
329	10	7	1	10	1000	340	0.000087	30	2277	22
330	78	70	1	10	7800	340	0.000675	30	3153	22
331	92	100	0	8	5888	340	0.000796	30	5524	22
332	67	90	0	8	4288	340	0.000580	30	2774	22
333	75	70	5	10	7500	300	0.000833	30	5812	22
334	83	70	5	10	8300	300	0.000922	30	6706	22
335	97	100	5	10	9700	340	0.000839	30	2389	22
336	18	30	0	16	4608	336	0.000159	30	2481	22
337	64	80	0	8	4096	340	0.000554	30	3226	22
338	95	100	5	10	9500	340	0.000822	30	4112	22
339	42	40	1	10	4200	340	0.000363	30	2936	22
340	67	80	5	10	6700	280	0.000855	30	3483	22
341	77	90	5	10	7700	300	0.000856	30	3464	22
342	64	120	1	10	6400	340	0.000554	30	3528	22
343	39	50	5	10	3900	220	0.000806	30	2411	22
344	48	60	1	10	4800	340	0.000415	30	3209	22
345	15	20	0	18	4860	336	0.000133	30	2783	22
346	25	30	1	10	2500	340	0.000216	30	5085	22
347	20	20	0	16	5120	336	0.000177	30	2414	22
348	14	10	0	18	4536	336	0.000124	30	2540	22
349	98	120	1	10	9800	340	0.000848	30	4558	22
350	58	100	0	10	5800	340	0.000502	30	2491	22
351	80	120	5	10	8000	300	0.000889	30	2774	22
352	20	30	5	10	2000	160	0.000781	30	1925	22
353	53	80	1	10	5300	340	0.000458	30	3702	22
354	25	30	5	10	2500	160	0.000977	30	2190	22
355	84	90	0	8	5376	340	0.000727	30	2964	22
356	65	100	5	10	6500	280	0.000829	30	2770	22
357	79	120	5	10	7900	300	0.000878	30	2326	22
358	35	60	1	10	3500	340	0.000303	30	2795	22
359	17	30	5	10	1700	140	0.000867	30	2240	22
360	18	30	5	10	1800	140	0.000918	30	1918	22
361	28	50	1	10	2800	340	0.000242	30	4555	22
362	41	70	5	10	4100	220	0.000847	30	2734	22
363	89	150	0	8	5696	340	0.000770	30	2500	22
364	34	60	5	10	3400	200	0.000850	30	3375	22
365	13	10	5	10	1300	120	0.000903	30	2215	22
366	27	30	5	10	2700	180	0.000833	30	3105	22
367	34	50	1	10	3400	340	0.000294	30	2252	22
368	9	10	5	10	900	100	0.000900	30	2338	22
369	33	40	0	12	4752	336	0.000292	30	2907	22
370	45	80	1	10	4500	340	0.000389	30	2306	22
371	88	120	5	10	8800	320	0.000859	30	2172	22
372	91	150	1	10	9100	340	0.000787	30	2464	22
373	66	120	1	10	6600	340	0.000571	30	2041	22
374	41	40	0	12	5904	336	0.000363	30	2259	22
375	51	80	5	10	5100	240	0.000885	30	2018	22
376	73	100	5	10	7300	300	0.000811	30	2802	22
377	35	80	0	12	5040	336	0.000310	30	2338	22
378	28	40	5	10	2800	180	0.000864	30	3118	22
379	91	80	0	8	5824	340	0.000787	30	3311	22
380	100	100	1	10	10000	340	0.000865	30	2400	22
381	96	120	5	10	9600	340	0.000830	30	2693	22
382	11	8	1	10	1100	340	0.000095	30	1908	22
383	17	20	1	10	1700	340	0.000147	30	2073	22
384	15	10	1	10	1500	340	0.000130	30	3353	22
385	60	30	0	10	6000	340	0.000519	30	4682	22
386	95	120	1	10	9500	340	0.000822	30	3070	22
387	55	40	1	10	5500	340	0.000476	30	3822	22
388	59	80	1	10	5900	340	0.000510	30	3558	22
389	96	90	1	10	9600	340	0.000830	30	3390	22
390	99	80	1	10	9900	340	0.000856	30	3301	22
391	76	60	5	10	7600	300	0.000844	30	2529	22
392	13	10	1	10	1300	340	0.000112	30	2037	22
393	47	40	5	10	4700	240	0.000816	30	2831	22
394	80	90	0	8	5120	340	0.000692	30	2527	22
395	29	40	1	10	2900	340	0.000251	30	2519	22
396	11	9	0	22	5324	320	0.000107	30	2236	22
397	72	50	1	10	7200	340	0.000623	30	2536	22
398	43	60	5	10	4300	220	0.000888	30	3136	22
399	57	70	1	10	5700	340	0.000493	30	3735	22
400	94	100	0	8	6016	340	0.000813	30	2799	22
401	33	60	1	10	3300	340	0.000285	30	2948	22
402	21	30	5	10	2100	160	0.000820	30	2634	22
403	76	90	1	10	7600	340	0.000657	30	2376	22
404	24	30	1	10	2400	340	0.000208	30	2643	22
405	12	10	5	10	1200	120	0.000833	30	2452	22
406	100	90	0	8	6400	340	0.000865	30	5158	22
407	89	100	1	10	8900	340	0.000770	30	2580	22
408	28	40	0	14	5488	336	0.000248	30	3021	22
409	74	80	5	10	7400	300	0.000822	30	5490	22
410	20	20	1	10	2000	340	0.000173	30	3972	22
411	75	80	1	10	7500	340	0.000649	30	2616	22
412	16	10	1	10	1600	340	0.000138	30	2141	22
413	72	90	5	10	7200	280	0.000918	30	2478	22
414	38	60	1	10	3800	340	0.000329	30	2974	22
415	13	8	0	20	5200	320	0.000127	30	4825	22
416	40	40	5	10	4000	220	0.000826	30	3057	22
417	79	80	0	8	5056	340	0.000683	30	4069	22
418	63	60	5	10	6300	260	0.000932	30	4338	22
419	96	120	0	8	6144	340	0.000830	30	2995	22
420	69	100	1	10	6900	340	0.000597	30	2918	22
421	88	120	0	8	5632	340	0.000761	30	3399	22
422	97	120	1	10	9700	340	0.000839	30	3199	22
423	87	100	0	8	5568	340	0.000753	30	3771	22
424	32	40	5	10	3200	200	0.000800	30	6133	22
425	52	50	0	10	5200	340	0.000450	30	4264	22
426	51	50	0	10	5100	340	0.000441	30	2925	22
427	78	80	0	8	4992	340	0.000675	30	5100	22
428	50	60	1	10	5000	340	0.000433	30	3834	22
429	86	80	5	10	8600	320	0.000840	30	4305	22
430	29	30	0	14	5684	336	0.000257	30	4382	22
431	9	10	1	10	900	340	0.000078	30	3713	22
432	81	50	1	10	8100	340	0.000701	30	4506	22
433	35	40	5	10	3500	200	0.000875	30	3905	22
434	80	90	1	10	8000	340	0.000692	30	3459	22
435	37	60	5	10	3700	200	0.000925	30	2674	22
436	93	120	0	8	5952	340	0.000804	30	2742	22
437	46	90	0	10	4600	340	0.000398	30	3270	22
438	89	100	5	10	8900	320	0.000869	30	2793	22
439	69	120	0	8	4416	340	0.000597	30	2416	22
440	38	30	5	10	3800	200	0.000950	30	3000	22
441	70	90	0	8	4480	340	0.000606	30	2934	22
442	68	60	5	10	6800	280	0.000867	30	4482	22
443	48	40	5	10	4800	240	0.000833	30	6124	22
444	71	80	1	10	7100	340	0.000614	30	3011	22
445	11	10	5	10	1100	120	0.000764	30	2946	22
446	14	20	1	10	1400	340	0.000121	30	2538	22
447	30	40	1	10	3000	340	0.000260	30	4766	22
448	43	80	0	10	4300	340	0.000372	30	3251	22
449	99	120	0	8	6336	340	0.000856	30	2332	22
450	99	90	5	10	9900	340	0.000856	30	2695	22
451	46	60	5	10	4600	240	0.000799	30	3783	22
452	77	80	0	8	4928	340	0.000666	30	3476	22
453	93	90	1	10	9300	340	0.000804	30	3574	22
454	65	70	1	10	6500	340	0.000562	30	3692	22
455	69	60	5	10	6900	280	0.000880	30	4274	22
456	36	50	1	10	3600	340	0.000311	30	2604	22
457	37	20	0	12	5328	336	0.000328	30	6859	22
458	58	40	1	10	5800	340	0.000502	30	5017	22
459	50	60	0	10	5000	340	0.000433	30	2403	22
460	36	50	5	10	3600	200	0.000900	30	2198	22
461	40	50	0	12	5760	336	0.000354	30	5294	22
462	54	90	0	10	5400	340	0.000467	30	2690	22
463	78	120	5	10	7800	300	0.000867	30	2803	22
464	47	80	0	10	4700	340	0.000407	30	2643	22
465	30	50	0	12	4320	336	0.000266	30	4094	22
466	72	90	0	8	4608	340	0.000623	30	3083	22
467	45	60	0	10	4500	340	0.000389	30	3970	22
468	63	90	0	8	4032	340	0.000545	30	4330	22
469	45	60	5	10	4500	220	0.000930	30	2887	22
470	88	120	1	10	8800	340	0.000761	30	4609	22
471	85	150	0	8	5440	340	0.000735	30	3131	22
472	52	90	5	10	5200	240	0.000903	30	2606	22
473	22	30	5	10	2200	160	0.000859	30	2103	22
474	42	50	5	10	4200	220	0.000868	30	2755	22
475	26	20	0	14	5096	336	0.000230	30	3740	22
476	60	90	1	10	6000	340	0.000519	30	2642	22
477	86	100	0	8	5504	340	0.000744	30	3624	22
478	22	30	1	10	2200	340	0.000190	30	3766	22
479	19	20	5	10	1900	140	0.000969	30	2547	22
480	54	70	5	10	5400	240	0.000937	30	3988	22
481	64	100	5	10	6400	280	0.000816	30	3152	22
482	68	120	1	10	6800	340	0.000588	30	2428	22
483	74	120	0	8	4736	340	0.000640	30	3668	22
484	95	150	0	8	6080	340	0.000822	30	2301	22
485	15	10	5	10	1500	140	0.000765	30	2480	22
486	87	100	5	10	8700	320	0.000850	30	2909	22
487	31	20	1	10	3100	340	0.000268	30	2334	22
488	62	70	1	10	6200	340	0.000536	30	4561	22
489	81	90	5	10	8100	300	0.000900	30	2525	22
490	24	30	5	10	2400	160	0.000937	30	1864	22
491	16	20	0	18	5184	336	0.000142	30	2726	22
492	53	80	0	10	5300	340	0.000458	30	3514	22
493	16	20	5	10	1600	140	0.000816	30	3669	22
494	46	50	1	10	4600	340	0.000398	30	5908	22
495	54	60	1	10	5400	340	0.000467	30	3482	22
496	85	100	5	10	8500	320	0.000830	30	2564	22
497	63	120	1	10	6300	340	0.000545	30	3594	22
498	87	90	1	10	8700	340	0.000753	30	6022	22
499	56	60	0	10	5600	340	0.000484	30	2744	22
500	71	70	5	10	7100	280	0.000906	30	5491	22
501	61	60	1	10	6100	340	0.000528	30	4120	22
502	23	20	1	10	2300	340	0.000199	30	2943	22
503	90	100	1	10	9000	340	0.000779	30	4078	22
504	77	80	1	10	7700	340	0.000666	30	3342	22
505	71	80	0	8	4544	340	0.000614	30	3999	22
506	65	80	0	8	4160	340	0.000562	30	3206	22
507	49	50	5	10	4900	240	0.000851	30	2772	22
508	100	120	5	10	10000	340	0.000865	30	2815	22
509	70	100	5	10	7000	280	0.000893	30	2313	22
510	39	50	0	12	5616	336	0.000345	30	2471	22
511	67	100	1	10	6700	340	0.000580	30	2991	22
512	79	120	1	10	7900	340	0.000683	30	2377	22
513	92	160	5	10	9200	320	0.000898	30	5163	22
514	33	40	5	10	3300	200	0.000825	30	2607	22
515	61	60	5	10	6100	260	0.000902	30	3468	22
516	32	30	1	10	3200	340	0.000277	30	2377	22
517	76	60	0	8	4864	340	0.000657	30	3880	22
518	93	100	5	10	9300	320	0.000908	30	2910	22
519	26	40	5	10	2600	180	0.000802	30	2965	22
520	10	10	0	22	4840	320	0.000098	30	2372	22
521	58	60	5	10	5800	260	0.000858	30	3788	22
522	94	90	5	10	9400	320	0.000918	30	2909	22
523	12	10	1	10	1200	340	0.000104	30	2476	22
524	44	30	5	10	4400	220	0.000909	30	6675	22
525	23	30	0	14	4508	336	0.000204	30	4360	22
526	82	90	1	10	8200	340	0.000709	30	2485	22
527	52	80	1	10	5200	340	0.000450	30	2777	22
528	27	70	1	10	2700	340	0.000234	30	3399	22
529	49	60	0	10	4900	340	0.000424	30	4550	22
530	47	50	1	10	4700	340	0.000407	30	4389	22
531	90	80	5	10	9000	320	0.000879	30	4627	22
532	43	60	1	10	4300	340	0.000372	30	2319	22
533	32	50	0	12	4608	336	0.000283	30	3228	22
534	81	100	0	8	5184	340	0.000701	30	2871	22
535	85	120	1	10	8500	340	0.000735	30	2435	22
536	90	130	0	8	5760	340	0.000779	30	3141	22
537	39	40	1	10	3900	340	0.000337	30	3183	22
538	98	120	0	8	6272	340	0.000848	30	5748	22
539	60	60	5	10	6000	260	0.000888	30	3601	22
540	73	100	1	10	7300	340	0.000631	30	4893	22
541	23	30	5	10	2300	160	0.000898	30	2407	22
542	70	90	1	10	7000	340	0.000606	30	3354	22
543	29	30	5	10	2900	180	0.000895	30	4773	22
544	24	30	0	14	4704	336	0.000213	30	2678	22
545	56	90	1	10	5600	340	0.000484	30	2761	22
546	21	20	1	10	2100	340	0.000182	30	7433	22
547	92	100	1	10	9200	340	0.000796	30	3048	22
548	83	110	1	10	8300	340	0.000718	30	2486	22
549	66	80	0	8	4224	340	0.000571	30	3268	22
550	27	30	0	14	5292	336	0.000239	30	3935	22
551	86	90	1	10	8600	340	0.000744	30	2606	22
552	68	80	0	8	4352	340	0.000588	30	3244	22
1	71	50	1	10	7100	340	0.000614	25	2766	24
2	12	10	1	10	1200	340	0.000104	25	1651	24
3	64	50	0	8	4096	340	0.000554	25	2005	24
4	42	60	1	10	4200	340	0.000363	25	2395	24
5	81	70	1	10	8100	340	0.000701	25	2434	24
6	77	80	5	10	7700	300	0.000856	25	3177	24
7	85	90	5	10	8500	320	0.000830	25	2015	24
8	35	20	5	10	3500	200	0.000875	25	2261	24
9	16	20	5	10	1600	140	0.000816	25	1811	24
10	51	40	0	10	5100	340	0.000441	25	2194	24
11	35	50	1	10	3500	340	0.000303	25	2650	24
12	19	20	5	10	1900	140	0.000969	25	1874	24
13	17	20	1	10	1700	340	0.000147	25	1667	24
14	14	10	0	18	4536	336	0.000124	25	1874	24
15	83	50	0	8	5312	340	0.000718	25	2633	24
16	30	30	1	10	3000	340	0.000260	25	2826	24
17	52	40	5	10	5200	240	0.000903	25	1946	24
18	18	30	1	10	1800	340	0.000156	25	2877	24
19	50	50	5	10	5000	240	0.000868	25	2043	24
20	88	70	1	10	8800	340	0.000761	25	2385	24
21	97	60	5	10	9700	340	0.000839	25	4235	24
22	96	80	5	10	9600	340	0.000830	25	3117	24
23	10	10	5	10	1000	100	0.001000	25	1806	24
24	22	20	0	16	5632	336	0.000195	25	2665	24
25	15	20	5	10	1500	140	0.000765	25	2083	24
26	96	80	0	8	6144	340	0.000830	25	2809	24
27	28	50	5	10	2800	180	0.000864	25	2870	24
28	58	60	5	10	5800	260	0.000858	25	2571	24
29	93	80	0	8	5952	340	0.000804	25	2093	24
30	87	80	0	8	5568	340	0.000753	25	2560	24
31	88	70	0	8	5632	340	0.000761	25	3677	24
32	47	50	1	10	4700	340	0.000407	25	2474	24
33	81	60	5	10	8100	300	0.000900	25	6708	24
34	48	30	5	10	4800	240	0.000833	25	3232	24
35	87	60	1	10	8700	340	0.000753	25	4359	24
36	46	30	5	10	4600	240	0.000799	25	4043	24
37	54	20	0	10	5400	340	0.000467	25	2641	24
38	64	50	1	10	6400	340	0.000554	25	2195	24
39	98	80	5	10	9800	340	0.000848	25	4001	24
40	27	30	5	10	2700	180	0.000833	25	2405	24
41	100	50	5	10	10000	340	0.000865	25	3969	24
42	12	20	5	10	1200	120	0.000833	25	3576	24
43	87	50	5	10	8700	320	0.000850	25	2940	24
44	67	40	1	10	6700	340	0.000580	25	2717	24
45	89	70	5	10	8900	320	0.000869	25	2002	24
46	52	30	1	10	5200	340	0.000450	25	4261	24
47	25	30	1	10	2500	340	0.000216	25	2964	24
48	77	60	0	8	4928	340	0.000666	25	2861	24
49	77	90	1	10	7700	340	0.000666	25	2103	24
50	73	70	1	10	7300	340	0.000631	25	2368	24
51	84	80	1	10	8400	340	0.000727	25	3200	24
52	80	60	5	10	8000	300	0.000889	25	3227	24
53	88	80	5	10	8800	320	0.000859	25	2512	24
54	97	90	0	8	6208	340	0.000839	25	4173	24
55	26	20	0	14	5096	336	0.000230	25	4206	24
56	36	30	1	10	3600	340	0.000311	25	2609	24
57	90	60	5	10	9000	320	0.000879	25	2041	24
58	37	30	1	10	3700	340	0.000320	25	2912	24
59	81	70	0	8	5184	340	0.000701	25	2223	24
60	37	60	0	12	5328	336	0.000328	25	3383	24
61	10	10	0	22	4840	320	0.000098	25	1941	24
62	86	80	5	10	8600	320	0.000840	25	3265	24
63	53	60	1	10	5300	340	0.000458	25	2421	24
64	66	70	1	10	6600	340	0.000571	25	2437	24
65	41	50	5	10	4100	220	0.000847	25	3300	24
66	62	50	5	10	6200	260	0.000917	25	1880	24
67	71	80	0	8	4544	340	0.000614	25	2400	24
68	69	80	0	8	4416	340	0.000597	25	3130	24
69	67	80	0	8	4288	340	0.000580	25	2506	24
70	54	60	1	10	5400	340	0.000467	25	4161	24
71	11	10	5	10	1100	120	0.000764	25	2280	24
72	85	60	1	10	8500	340	0.000735	25	2800	24
73	24	20	0	14	4704	336	0.000213	25	4533	24
74	58	60	1	10	5800	340	0.000502	25	5444	24
75	25	40	0	14	4900	336	0.000221	25	3155	24
76	11	10	1	10	1100	340	0.000095	25	2346	24
77	17	20	0	18	5508	336	0.000151	25	7618	24
78	56	40	5	10	5600	260	0.000828	25	2436	24
79	9	9	5	10	900	100	0.000900	25	5134	24
80	19	20	0	16	4864	336	0.000168	25	3187	24
81	80	30	0	8	5120	340	0.000692	25	3706	24
82	76	60	5	10	7600	300	0.000844	25	1946	24
83	68	70	1	10	6800	340	0.000588	25	1804	24
84	61	70	5	10	6100	260	0.000902	25	2252	24
85	57	60	5	10	5700	260	0.000843	25	3671	24
86	42	50	0	10	4200	340	0.000363	25	3923	24
87	32	40	0	12	4608	336	0.000283	25	3427	24
88	45	40	1	10	4500	340	0.000389	25	2662	24
89	26	40	1	10	2600	340	0.000225	25	3352	24
90	42	30	5	10	4200	220	0.000868	25	2772	24
91	86	80	1	10	8600	340	0.000744	25	4204	24
92	92	90	0	8	5888	340	0.000796	25	2557	24
93	19	20	1	10	1900	340	0.000164	25	1836	24
94	33	40	0	12	4752	336	0.000292	25	1515	24
95	70	60	0	8	4480	340	0.000606	25	2149	24
96	37	40	5	10	3700	200	0.000925	25	2545	24
97	61	60	0	10	6100	340	0.000528	25	1942	24
98	20	20	0	16	5120	336	0.000177	25	2234	24
99	18	20	0	16	4608	336	0.000159	25	1767	24
100	20	20	5	10	2000	160	0.000781	25	1645	24
101	91	80	1	10	9100	340	0.000787	25	2499	24
102	95	90	1	10	9500	340	0.000822	25	1971	24
103	38	50	1	10	3800	340	0.000329	25	8575	24
104	49	60	1	10	4900	340	0.000424	25	1961	24
105	60	70	0	10	6000	340	0.000519	25	2063	24
106	94	90	0	8	6016	340	0.000813	25	2006	24
107	36	40	0	12	5184	336	0.000319	25	3246	24
108	23	20	0	14	4508	336	0.000204	25	1993	24
109	25	20	5	10	2500	160	0.000977	25	2566	24
110	53	40	5	10	5300	240	0.000920	25	2625	24
111	32	30	5	10	3200	200	0.000800	25	8309	24
112	34	40	5	10	3400	200	0.000850	25	3279	24
113	31	50	5	10	3100	180	0.000957	25	5091	24
114	23	40	5	10	2300	160	0.000898	25	3962	24
115	36	40	5	10	3600	200	0.000900	25	4165	24
116	63	60	1	10	6300	340	0.000545	25	2332	24
117	82	70	0	8	5248	340	0.000709	25	2619	24
118	84	80	5	10	8400	320	0.000820	25	3153	24
119	56	60	1	10	5600	340	0.000484	25	2249	24
120	55	60	0	10	5500	340	0.000476	25	2270	24
121	46	50	1	10	4600	340	0.000398	25	4530	24
122	21	20	1	10	2100	340	0.000182	25	2113	24
123	66	50	5	10	6600	280	0.000842	25	5101	24
124	21	20	5	10	2100	160	0.000820	25	1618	24
125	55	40	1	10	5500	340	0.000476	25	2205	24
126	49	30	5	10	4900	240	0.000851	25	1959	24
127	48	40	0	10	4800	340	0.000415	25	5186	24
128	86	50	0	8	5504	340	0.000744	25	3970	24
129	28	30	1	10	2800	340	0.000242	25	4232	24
130	66	60	0	8	4224	340	0.000571	25	3674	24
131	34	30	1	10	3400	340	0.000294	25	2917	24
132	98	70	1	10	9800	340	0.000848	25	3017	24
133	50	50	0	10	5000	340	0.000433	25	3015	24
134	68	50	0	8	4352	340	0.000588	25	4650	24
135	26	30	5	10	2600	180	0.000802	25	2151	24
136	44	40	1	10	4400	340	0.000381	25	3016	24
137	93	70	5	10	9300	320	0.000908	25	2054	24
138	39	30	5	10	3900	220	0.000806	25	1846	24
139	51	40	1	10	5100	340	0.000441	25	2018	24
140	57	50	1	10	5700	340	0.000493	25	2328	24
141	100	80	0	8	6400	340	0.000865	25	3124	24
142	34	40	0	12	4896	336	0.000301	25	4325	24
143	63	50	0	8	4032	340	0.000545	25	5954	24
144	82	60	1	10	8200	340	0.000709	25	2598	24
145	89	70	0	8	5696	340	0.000770	25	2487	24
146	94	70	5	10	9400	320	0.000918	25	2215	24
147	78	60	5	10	7800	300	0.000867	25	1905	24
148	79	70	1	10	7900	340	0.000683	25	1799	24
149	72	50	0	8	4608	340	0.000623	25	3842	24
150	14	20	1	10	1400	340	0.000121	25	1742	24
151	99	50	5	10	9900	340	0.000856	25	1733	24
152	29	30	1	10	2900	340	0.000251	25	3790	24
153	90	40	1	10	9000	340	0.000779	25	5941	24
154	62	40	0	8	3968	340	0.000536	25	4161	24
155	31	30	1	10	3100	340	0.000268	25	1821	24
156	18	10	5	10	1800	140	0.000918	25	4152	24
157	38	30	5	10	3800	200	0.000950	25	2342	24
158	67	50	5	10	6700	280	0.000855	25	2881	24
159	68	40	5	10	6800	280	0.000867	25	2791	24
160	32	30	1	10	3200	340	0.000277	25	2638	24
161	74	50	0	8	4736	340	0.000640	25	4158	24
162	43	30	0	10	4300	340	0.000372	25	1817	24
163	83	60	1	10	8300	340	0.000718	25	1835	24
164	90	60	0	8	5760	340	0.000779	25	4296	24
165	95	80	0	8	6080	340	0.000822	25	2587	24
166	60	60	5	10	6000	260	0.000888	25	4921	24
167	53	50	0	10	5300	340	0.000458	25	3186	24
168	91	60	5	10	9100	320	0.000889	25	2003	24
169	76	60	1	10	7600	340	0.000657	25	2399	24
170	39	40	0	12	5616	336	0.000345	25	2462	24
171	69	60	1	10	6900	340	0.000597	25	2495	24
172	22	30	5	10	2200	160	0.000859	25	2291	24
173	52	40	0	10	5200	340	0.000450	25	3704	24
174	64	50	5	10	6400	280	0.000816	25	2249	24
175	45	40	0	10	4500	340	0.000389	25	2505	24
176	14	20	5	10	1400	120	0.000972	25	2881	24
177	51	30	5	10	5100	240	0.000885	25	2995	24
178	54	40	5	10	5400	240	0.000937	25	2571	24
179	79	70	5	10	7900	300	0.000878	25	3420	24
180	29	30	5	10	2900	180	0.000895	25	3345	24
181	82	60	5	10	8200	300	0.000911	25	2246	24
182	79	90	0	8	5056	340	0.000683	25	3521	24
183	30	30	5	10	3000	180	0.000926	25	5996	24
184	98	90	0	8	6272	340	0.000848	25	2513	24
185	13	20	1	10	1300	340	0.000112	25	1700	24
186	38	40	0	12	5472	336	0.000337	25	1826	24
187	40	40	0	12	5760	336	0.000354	25	1724	24
188	85	60	0	8	5440	340	0.000735	25	2039	24
189	9	10	0	24	5184	324	0.000086	25	3879	24
190	46	60	0	10	4600	340	0.000398	25	3162	24
191	27	40	1	10	2700	340	0.000234	25	2991	24
192	49	60	0	10	4900	340	0.000424	25	2017	24
193	31	40	0	12	4464	336	0.000275	25	2206	24
194	22	40	1	10	2200	340	0.000190	25	1657	24
195	27	30	0	14	5292	336	0.000239	25	2978	24
196	70	50	5	10	7000	280	0.000893	25	2302	24
197	39	50	1	10	3900	340	0.000337	25	3096	24
198	47	50	0	10	4700	340	0.000407	25	1872	24
199	24	30	5	10	2400	160	0.000937	25	2619	24
200	89	70	1	10	8900	340	0.000770	25	1938	24
201	35	40	0	12	5040	336	0.000310	25	2263	24
202	72	70	5	10	7200	280	0.000918	25	1954	24
203	63	60	5	10	6300	260	0.000932	25	2151	24
204	92	70	1	10	9200	340	0.000796	25	2029	24
205	30	50	0	12	4320	336	0.000266	25	2371	24
206	70	60	1	10	7000	340	0.000606	25	2371	24
207	65	50	5	10	6500	280	0.000829	25	2426	24
208	73	60	0	8	4672	340	0.000631	25	2458	24
209	9	10	1	10	900	340	0.000078	25	1822	24
210	43	30	1	10	4300	340	0.000372	25	1918	24
211	45	40	5	10	4500	220	0.000930	25	2474	24
212	48	50	1	10	4800	340	0.000415	25	3172	24
213	59	30	0	10	5900	340	0.000510	25	2119	24
214	50	50	1	10	5000	340	0.000433	25	2048	24
215	65	40	0	8	4160	340	0.000562	25	2180	24
216	75	50	0	8	4800	340	0.000649	25	2008	24
217	99	60	1	10	9900	340	0.000856	25	1719	24
218	33	30	5	10	3300	200	0.000825	25	1815	24
219	13	10	5	10	1300	120	0.000903	25	1680	24
220	20	20	1	10	2000	340	0.000173	25	1727	24
221	59	50	1	10	5900	340	0.000510	25	1782	24
222	100	60	1	10	10000	340	0.000865	25	1988	24
223	61	60	1	10	6100	340	0.000528	25	1858	24
224	28	30	0	14	5488	336	0.000248	25	1740	24
225	33	40	1	10	3300	340	0.000285	25	1867	24
226	58	50	0	10	5800	340	0.000502	25	1549	24
227	71	50	5	10	7100	280	0.000906	25	2971	24
228	80	50	1	10	8000	340	0.000692	25	1519	24
229	15	10	1	10	1500	340	0.000130	25	2253	24
230	91	60	0	8	5824	340	0.000787	25	2682	24
231	93	60	1	10	9300	340	0.000804	25	2076	24
232	76	60	0	8	4864	340	0.000657	25	2094	24
233	72	50	1	10	7200	340	0.000623	25	2876	24
234	94	80	1	10	9400	340	0.000813	25	1718	24
235	78	70	0	8	4992	340	0.000675	25	2452	24
236	10	10	1	10	1000	340	0.000087	25	1674	24
237	74	30	5	10	7400	300	0.000822	25	1745	24
238	17	20	5	10	1700	140	0.000867	25	3873	24
239	62	40	1	10	6200	340	0.000536	25	1874	24
240	41	30	1	10	4100	340	0.000355	25	2167	24
241	44	30	0	10	4400	340	0.000381	25	1599	24
242	41	50	0	12	5904	336	0.000363	25	1710	24
243	47	40	5	10	4700	240	0.000816	25	3710	24
244	99	80	0	8	6336	340	0.000856	25	2007	24
245	56	70	0	10	5600	340	0.000484	25	1863	24
246	69	60	5	10	6900	280	0.000880	25	2589	24
247	12	10	0	20	4800	320	0.000117	25	1936	24
248	60	50	1	10	6000	340	0.000519	25	1938	24
249	44	60	5	10	4400	220	0.000909	25	1863	24
250	83	70	5	10	8300	300	0.000922	25	3021	24
251	23	20	1	10	2300	340	0.000199	25	1593	24
252	59	40	5	10	5900	260	0.000873	25	3111	24
253	74	50	1	10	7400	340	0.000640	25	2872	24
254	78	60	1	10	7800	340	0.000675	25	1705	24
255	43	40	5	10	4300	220	0.000888	25	3569	24
256	21	20	0	16	5376	336	0.000186	25	2249	24
257	13	10	0	20	5200	320	0.000127	25	2441	24
258	97	30	1	10	9700	340	0.000839	25	2090	24
259	40	50	5	10	4000	220	0.000826	25	2857	24
260	24	30	1	10	2400	340	0.000208	25	3119	24
261	16	10	0	18	5184	336	0.000142	25	1899	24
262	75	40	5	10	7500	300	0.000833	25	2234	24
263	92	70	5	10	9200	320	0.000898	25	2539	24
264	16	20	1	10	1600	340	0.000138	25	2314	24
265	95	50	5	10	9500	340	0.000822	25	1946	24
266	29	40	0	14	5684	336	0.000257	25	4287	24
267	15	10	0	18	4860	336	0.000133	25	3952	24
268	11	10	0	22	5324	320	0.000107	25	1554	24
269	55	30	5	10	5500	260	0.000814	25	2615	24
270	84	50	0	8	5376	340	0.000727	25	1828	24
271	65	50	1	10	6500	340	0.000562	25	1842	24
272	73	60	5	10	7300	300	0.000811	25	5291	24
273	57	50	0	10	5700	340	0.000493	25	1933	24
274	96	70	1	10	9600	340	0.000830	25	1644	24
275	75	70	1	10	7500	340	0.000649	25	3335	24
276	40	40	1	10	4000	340	0.000346	25	2420	24
277	45	40	0	10	4500	340	0.000389	30	1700	24
278	93	60	5	10	9300	320	0.000908	30	1614	24
279	41	40	1	10	4100	340	0.000355	30	1808	24
280	88	70	5	10	8800	320	0.000859	30	1679	24
281	36	50	1	10	3600	340	0.000311	30	1619	24
282	84	70	0	8	5376	340	0.000727	30	1678	24
283	78	70	0	8	4992	340	0.000675	30	1704	24
284	18	20	5	10	1800	140	0.000918	30	1567	24
285	27	20	1	10	2700	340	0.000234	30	1518	24
286	61	60	5	10	6100	260	0.000902	30	1787	24
287	83	70	0	8	5312	340	0.000718	30	2606	24
288	75	60	1	10	7500	340	0.000649	30	1892	24
289	71	50	5	10	7100	280	0.000906	30	1958	24
290	61	60	1	10	6100	340	0.000528	30	1750	24
291	55	60	1	10	5500	340	0.000476	30	2465	24
292	39	30	1	10	3900	340	0.000337	30	1920	24
293	88	50	0	8	5632	340	0.000761	30	1733	24
294	36	40	5	10	3600	200	0.000900	30	2814	24
295	29	30	1	10	2900	340	0.000251	30	18516	24
296	59	30	5	10	5900	260	0.000873	30	1803	24
297	21	20	5	10	2100	160	0.000820	30	1540	24
298	33	30	5	10	3300	200	0.000825	30	3839	24
299	57	40	0	10	5700	340	0.000493	30	1588	24
300	66	40	0	8	4224	340	0.000571	30	4778	24
301	17	10	0	18	5508	336	0.000151	30	2522	24
302	44	30	1	10	4400	340	0.000381	30	2101	24
303	97	40	5	10	9700	340	0.000839	30	2502	24
304	22	20	0	16	5632	336	0.000195	30	6386	24
305	52	40	0	10	5200	340	0.000450	30	1844	24
306	96	50	5	10	9600	340	0.000830	30	2193	24
307	88	70	1	10	8800	340	0.000761	30	2402	24
308	67	40	5	10	6700	280	0.000855	30	2435	24
309	57	40	1	10	5700	340	0.000493	30	2253	24
310	14	10	1	10	1400	340	0.000121	30	1699	24
311	31	30	5	10	3100	180	0.000957	30	3172	24
312	67	50	0	8	4288	340	0.000580	30	1666	24
313	72	70	0	8	4608	340	0.000623	30	5101	24
314	58	50	5	10	5800	260	0.000858	30	2832	24
315	83	60	5	10	8300	300	0.000922	30	2719	24
316	53	50	0	10	5300	340	0.000458	30	1810	24
317	77	40	0	8	4928	340	0.000666	30	1889	24
318	14	10	0	18	4536	336	0.000124	30	2132	24
319	85	30	5	10	8500	320	0.000830	30	2649	24
320	74	60	0	8	4736	340	0.000640	30	2038	24
321	60	70	0	10	6000	340	0.000519	30	3176	24
322	93	80	1	10	9300	340	0.000804	30	2864	24
323	74	50	1	10	7400	340	0.000640	30	2232	24
324	9	8	5	10	900	100	0.000900	30	2539	24
325	24	20	5	10	2400	160	0.000937	30	5370	24
326	17	20	5	10	1700	140	0.000867	30	2135	24
327	47	50	1	10	4700	340	0.000407	30	1793	24
328	93	80	0	8	5952	340	0.000804	30	1820	24
329	98	90	0	8	6272	340	0.000848	30	2262	24
330	37	10	5	10	3700	200	0.000925	30	3402	24
331	28	30	5	10	2800	180	0.000864	30	3496	24
332	61	50	0	10	6100	340	0.000528	30	3156	24
333	32	40	5	10	3200	200	0.000800	30	3049	24
334	92	60	0	8	5888	340	0.000796	30	2521	24
335	94	80	0	8	6016	340	0.000813	30	3314	24
336	15	10	5	10	1500	140	0.000765	30	1942	24
337	66	20	1	10	6600	340	0.000571	30	1871	24
338	51	30	0	10	5100	340	0.000441	30	2633	24
339	19	20	0	16	4864	336	0.000168	30	2328	24
340	70	50	1	10	7000	340	0.000606	30	1825	24
341	47	60	0	10	4700	340	0.000407	30	2964	24
342	74	70	5	10	7400	300	0.000822	30	1863	24
343	40	40	5	10	4000	220	0.000826	30	2691	24
344	30	40	1	10	3000	340	0.000260	30	2250	24
345	82	60	0	8	5248	340	0.000709	30	2187	24
346	52	50	5	10	5200	240	0.000903	30	2432	24
347	44	50	0	10	4400	340	0.000381	30	2077	24
348	33	40	0	12	4752	336	0.000292	30	2610	24
349	48	40	5	10	4800	240	0.000833	30	4895	24
350	75	60	5	10	7500	300	0.000833	30	3138	24
351	10	10	5	10	1000	100	0.001000	30	1791	24
352	55	50	0	10	5500	340	0.000476	30	3609	24
353	80	50	5	10	8000	300	0.000889	30	3038	24
354	54	40	1	10	5400	340	0.000467	30	7240	24
355	76	50	5	10	7600	300	0.000844	30	2240	24
356	98	60	5	10	9800	340	0.000848	30	3309	24
357	46	40	0	10	4600	340	0.000398	30	2333	24
358	99	70	5	10	9900	340	0.000856	30	1906	24
359	29	40	5	10	2900	180	0.000895	30	1967	24
360	10	10	0	22	4840	320	0.000098	30	1894	24
361	71	60	0	8	4544	340	0.000614	30	2140	24
362	52	40	1	10	5200	340	0.000450	30	4445	24
363	87	70	1	10	8700	340	0.000753	30	4318	24
364	11	10	5	10	1100	120	0.000764	30	1551	24
365	62	40	1	10	6200	340	0.000536	30	3232	24
366	18	30	1	10	1800	340	0.000156	30	3358	24
367	85	60	1	10	8500	340	0.000735	30	2062	24
368	50	50	5	10	5000	240	0.000868	30	4290	24
369	39	40	5	10	3900	220	0.000806	30	2651	24
370	95	50	0	8	6080	340	0.000822	30	17583	24
371	59	40	1	10	5900	340	0.000510	30	1690	24
372	23	30	5	10	2300	160	0.000898	30	1696	24
373	12	20	1	10	1200	340	0.000104	30	1452	24
374	41	30	5	10	4100	220	0.000847	30	1507	24
375	84	50	5	10	8400	320	0.000820	30	1430	24
376	94	70	1	10	9400	340	0.000813	30	1698	24
377	25	30	0	14	4900	336	0.000221	30	2583	24
378	13	20	0	20	5200	320	0.000127	30	1366	24
379	23	20	1	10	2300	340	0.000199	30	1584	24
380	86	60	1	10	8600	340	0.000744	30	2114	24
381	13	10	5	10	1300	120	0.000903	30	1662	24
382	76	50	1	10	7600	340	0.000657	30	3439	24
383	83	60	1	10	8300	340	0.000718	30	1665	24
384	76	70	0	8	4864	340	0.000657	30	3672	24
385	89	60	0	8	5696	340	0.000770	30	2961	24
386	72	60	1	10	7200	340	0.000623	30	2265	24
387	79	70	1	10	7900	340	0.000683	30	2486	24
388	30	30	5	10	3000	180	0.000926	30	2441	24
389	35	30	1	10	3500	340	0.000303	30	2052	24
390	60	50	1	10	6000	340	0.000519	30	4469	24
391	92	70	1	10	9200	340	0.000796	30	1774	24
392	62	30	5	10	6200	260	0.000917	30	1783	24
393	99	60	1	10	9900	340	0.000856	30	1551	24
394	10	10	1	10	1000	340	0.000087	30	1529	24
395	97	60	1	10	9700	340	0.000839	30	2665	24
396	86	70	0	8	5504	340	0.000744	30	1809	24
397	16	10	1	10	1600	340	0.000138	30	1593	24
398	27	30	0	14	5292	336	0.000239	30	1999	24
399	70	40	5	10	7000	280	0.000893	30	2395	24
400	24	30	1	10	2400	340	0.000208	30	1674	24
401	56	50	0	10	5600	340	0.000484	30	1698	24
402	15	20	0	18	4860	336	0.000133	30	1902	24
403	90	60	1	10	9000	340	0.000779	30	3674	24
404	17	20	1	10	1700	340	0.000147	30	1937	24
405	78	50	5	10	7800	300	0.000867	30	3889	24
406	80	60	0	8	5120	340	0.000692	30	1829	24
407	22	20	5	10	2200	160	0.000859	30	1685	24
408	41	30	0	12	5904	336	0.000363	30	1594	24
409	34	30	1	10	3400	340	0.000294	30	2869	24
410	69	50	0	8	4416	340	0.000597	30	1592	24
411	56	50	1	10	5600	340	0.000484	30	1695	24
412	12	10	0	20	4800	320	0.000117	30	1819	24
413	24	20	0	14	4704	336	0.000213	30	1687	24
414	49	50	1	10	4900	340	0.000424	30	2891	24
415	15	20	1	10	1500	340	0.000130	30	2841	24
416	37	30	0	12	5328	336	0.000328	30	1520	24
417	34	30	0	12	4896	336	0.000301	30	4116	24
418	28	30	0	14	5488	336	0.000248	30	1828	24
419	40	40	1	10	4000	340	0.000346	30	1451	24
420	69	50	1	10	6900	340	0.000597	30	1364	24
421	26	30	5	10	2600	180	0.000802	30	1663	24
422	70	60	0	8	4480	340	0.000606	30	1380	24
423	43	60	0	10	4300	340	0.000372	30	1460	24
424	11	10	0	22	5324	320	0.000107	30	2045	24
425	54	30	5	10	5400	240	0.000937	30	9344	24
426	95	60	5	10	9500	340	0.000822	30	1682	24
427	100	80	5	10	10000	340	0.000865	30	2256	24
428	62	70	0	8	3968	340	0.000536	30	3894	24
429	95	70	1	10	9500	340	0.000822	30	4333	24
430	35	50	5	10	3500	200	0.000875	30	2957	24
431	27	40	5	10	2700	180	0.000833	30	1500	24
432	25	30	5	10	2500	160	0.000977	30	1546	24
433	32	30	1	10	3200	340	0.000277	30	1877	24
434	64	50	5	10	6400	280	0.000816	30	2672	24
435	100	70	0	8	6400	340	0.000865	30	2321	24
436	91	70	0	8	5824	340	0.000787	30	2953	24
437	58	50	0	10	5800	340	0.000502	30	2147	24
438	71	50	1	10	7100	340	0.000614	30	3407	24
439	21	10	1	10	2100	340	0.000182	30	4541	24
440	100	40	1	10	10000	340	0.000865	30	3674	24
441	81	50	5	10	8100	300	0.000900	30	1445	24
442	20	20	0	16	5120	336	0.000177	30	1919	24
443	18	20	0	16	4608	336	0.000159	30	1428	24
444	26	20	0	14	5096	336	0.000230	30	1401	24
445	77	50	5	10	7700	300	0.000856	30	1580	24
446	42	40	1	10	4200	340	0.000363	30	1850	24
447	89	50	1	10	8900	340	0.000770	30	2101	24
448	53	40	1	10	5300	340	0.000458	30	2365	24
449	68	50	5	10	6800	280	0.000867	30	2540	24
450	87	60	0	8	5568	340	0.000753	30	2050	24
451	84	60	1	10	8400	340	0.000727	30	1801	24
452	19	20	1	10	1900	340	0.000164	30	2112	24
453	63	30	5	10	6300	260	0.000932	30	1860	24
454	65	40	0	8	4160	340	0.000562	30	4045	24
455	48	40	0	10	4800	340	0.000415	30	2870	24
456	96	60	0	8	6144	340	0.000830	30	2357	24
457	64	50	0	8	4096	340	0.000554	30	3606	24
458	69	50	5	10	6900	280	0.000880	30	3627	24
459	80	70	1	10	8000	340	0.000692	30	1883	24
460	26	20	1	10	2600	340	0.000225	30	1802	24
461	14	10	5	10	1400	120	0.000972	30	1625	24
462	45	40	1	10	4500	340	0.000389	30	1518	24
463	42	50	5	10	4200	220	0.000868	30	1380	24
464	68	50	1	10	6800	340	0.000588	30	3019	24
465	65	60	1	10	6500	340	0.000562	30	1657	24
466	49	50	5	10	4900	240	0.000851	30	1755	24
467	25	30	1	10	2500	340	0.000216	30	2341	24
468	51	40	5	10	5100	240	0.000885	30	1699	24
469	56	50	5	10	5600	260	0.000828	30	1844	24
470	63	40	0	8	4032	340	0.000545	30	1948	24
471	28	30	1	10	2800	340	0.000242	30	2053	24
472	53	40	5	10	5300	240	0.000920	30	1642	24
473	50	40	0	10	5000	340	0.000433	30	1489	24
474	99	70	0	8	6336	340	0.000856	30	2123	24
475	50	50	1	10	5000	340	0.000433	30	3357	24
476	48	40	1	10	4800	340	0.000415	30	1677	24
477	51	40	1	10	5100	340	0.000441	30	3288	24
478	54	30	0	10	5400	340	0.000467	30	1390	24
479	12	10	5	10	1200	120	0.000833	30	1335	24
480	20	20	5	10	2000	160	0.000781	30	1531	24
481	21	20	0	16	5376	336	0.000186	30	2200	24
482	22	20	1	10	2200	340	0.000190	30	2485	24
483	94	50	5	10	9400	320	0.000918	30	2178	24
484	86	50	5	10	8600	320	0.000840	30	1904	24
485	90	50	5	10	9000	320	0.000879	30	2169	24
486	73	60	5	10	7300	300	0.000811	30	2318	24
487	89	60	5	10	8900	320	0.000869	30	3455	24
488	38	40	1	10	3800	340	0.000329	30	3149	24
489	39	40	0	12	5616	336	0.000345	30	3005	24
490	57	50	5	10	5700	260	0.000843	30	1463	24
491	38	40	0	12	5472	336	0.000337	30	1591	24
492	72	60	5	10	7200	280	0.000918	30	1487	24
493	47	40	5	10	4700	240	0.000816	30	1606	24
494	97	60	0	8	6208	340	0.000839	30	1486	24
495	30	20	0	12	4320	336	0.000266	30	1430	24
496	91	70	1	10	9100	340	0.000787	30	2517	24
497	79	40	0	8	5056	340	0.000683	30	2149	24
498	63	40	1	10	6300	340	0.000545	30	2131	24
499	31	30	0	12	4464	336	0.000275	30	2163	24
500	91	60	5	10	9100	320	0.000889	30	1784	24
501	40	30	0	12	5760	336	0.000354	30	2301	24
502	19	20	5	10	1900	140	0.000969	30	1904	24
503	49	40	0	10	4900	340	0.000424	30	1816	24
504	92	50	5	10	9200	320	0.000898	30	1698	24
505	98	60	1	10	9800	340	0.000848	30	1488	24
506	58	60	1	10	5800	340	0.000502	30	1586	24
507	87	50	5	10	8700	320	0.000850	30	2532	24
508	29	30	0	14	5684	336	0.000257	30	3408	24
509	13	20	1	10	1300	340	0.000112	30	2137	24
510	42	40	0	10	4200	340	0.000363	30	2030	24
511	79	60	5	10	7900	300	0.000878	30	1627	24
512	34	20	5	10	3400	200	0.000850	30	1747	24
513	75	50	0	8	4800	340	0.000649	30	2166	24
514	46	40	1	10	4600	340	0.000398	30	1757	24
515	81	50	0	8	5184	340	0.000701	30	1574	24
516	31	40	1	10	3100	340	0.000268	30	2345	24
517	33	30	1	10	3300	340	0.000285	30	1987	24
518	32	30	0	12	4608	336	0.000283	30	2222	24
519	96	60	1	10	9600	340	0.000830	30	1814	24
520	90	70	0	8	5760	340	0.000779	30	1695	24
521	11	10	1	10	1100	340	0.000095	30	1693	24
522	43	50	1	10	4300	340	0.000372	30	1651	24
523	9	9	1	10	900	340	0.000078	30	6925	24
524	38	30	5	10	3800	200	0.000950	30	4052	24
525	66	50	5	10	6600	280	0.000842	30	2320	24
526	67	60	1	10	6700	340	0.000580	30	5553	24
527	9	7	0	24	5184	324	0.000086	30	6384	24
528	60	30	5	10	6000	260	0.000888	30	4076	24
529	37	30	1	10	3700	340	0.000320	30	2066	24
530	20	20	1	10	2000	340	0.000173	30	5955	24
531	85	70	0	8	5440	340	0.000735	30	2385	24
532	36	50	0	12	5184	336	0.000319	30	2365	24
533	59	50	0	10	5900	340	0.000510	30	2736	24
534	68	50	0	8	4352	340	0.000588	30	1582	24
535	77	60	1	10	7700	340	0.000666	30	4058	24
536	46	50	5	10	4600	240	0.000799	30	2652	24
537	43	40	5	10	4300	220	0.000888	30	2253	24
538	35	30	0	12	5040	336	0.000310	30	2634	24
539	55	50	5	10	5500	260	0.000814	30	1651	24
540	16	10	0	18	5184	336	0.000142	30	4268	24
541	45	20	5	10	4500	220	0.000930	30	3858	24
542	82	50	1	10	8200	340	0.000709	30	1791	24
543	16	10	5	10	1600	140	0.000816	30	2763	24
544	78	30	1	10	7800	340	0.000675	30	2052	24
545	73	50	1	10	7300	340	0.000631	30	1481	24
546	73	60	0	8	4672	340	0.000631	30	2029	24
547	82	60	5	10	8200	300	0.000911	30	2494	24
548	23	20	0	14	4508	336	0.000204	30	1619	24
549	65	40	5	10	6500	280	0.000829	30	1898	24
550	81	50	1	10	8100	340	0.000701	30	1958	24
551	44	40	5	10	4400	220	0.000909	30	2520	24
552	64	50	1	10	6400	340	0.000554	30	3117	24
1	37	60	5	10	3700	200	0.000925	25	2011	29
2	93	120	5	10	9300	320	0.000908	25	5598	29
3	82	160	0	8	5248	340	0.000709	25	2547	29
4	67	160	0	8	4288	340	0.000580	25	3265	29
5	55	90	1	10	5500	340	0.000476	25	2366	29
6	79	120	0	8	5056	340	0.000683	25	2274	29
7	90	180	0	8	5760	340	0.000779	25	3819	29
8	22	30	5	10	2200	160	0.000859	25	1991	29
9	83	160	1	10	8300	340	0.000718	25	2587	29
10	9	10	5	10	900	100	0.000900	25	2861	29
11	10	9	1	10	1000	340	0.000087	25	2936	29
12	58	80	1	10	5800	340	0.000502	25	6017	29
13	78	120	5	10	7800	300	0.000867	25	2558	29
14	73	160	0	8	4672	340	0.000631	25	2591	29
15	34	90	1	10	3400	340	0.000294	25	3612	29
16	96	150	0	8	6144	340	0.000830	25	3665	29
17	23	30	5	10	2300	160	0.000898	25	2175	29
18	64	80	5	10	6400	280	0.000816	25	4337	29
19	100	120	5	10	10000	340	0.000865	25	3175	29
20	44	30	5	10	4400	220	0.000909	25	2636	29
21	54	50	5	10	5400	240	0.000937	25	3072	29
