Trial	stim	resp	condition	dotsize	area	Hull	density	RT	Subject
1	58	30	1	10	5800	340	0.000502	15545	1
2	5	5	0	24	2880	324	0.000048	2119	1
3	20	25	0	16	5120	336	0.000177	3323	1
4	25	27	0	14	4900	336	0.000221	3203	1
5	55	43	5	10	5500	260	0.000814	2815	1
6	71	50	1	10	7100	340	0.000614	3261	1
7	53	55	1	10	5300	340	0.000458	2126	1
8	98	60	5	10	9800	340	0.000848	4421	1
9	42	45	5	10	4200	220	0.000868	2521	1
10	26	26	5	10	2600	180	0.000802	3562	1
11	39	40	1	10	3900	340	0.000337	3242	1
12	82	56	5	10	8200	300	0.000911	4724	1
13	90	70	1	10	9000	340	0.000779	2214	1
14	20	16	5	10	2000	160	0.000781	2844	1
15	82	74	1	10	8200	340	0.000709	2086	1
16	19	36	0	16	4864	336	0.000168	6875	1
17	16	24	1	10	1600	340	0.000138	2774	1
18	32	32	1	10	3200	340	0.000277	3160	1
19	53	58	0	10	5300	340	0.000458	3204	1
20	8	40	1	10	800	340	0.000069	5142	1
21	98	74	1	10	9800	340	0.000848	2607	1
22	41	40	1	10	4100	340	0.000355	5782	1
23	49	50	1	10	4900	340	0.000424	1805	1
24	78	40	0	8	4992	340	0.000675	2268	1
25	69	65	0	8	4416	340	0.000597	2132	1
26	82	75	0	8	5248	340	0.000709	1959	1
27	39	30	5	10	3900	220	0.000806	2120	1
28	44	32	5	10	4400	220	0.000909	1887	1
29	68	46	5	10	6800	280	0.000867	1873	1
30	31	36	1	10	3100	340	0.000268	3715	1
31	33	30	5	10	3300	200	0.000825	2351	1
32	30	30	1	10	3000	340	0.000260	2858	1
33	28	25	0	14	5488	336	0.000248	2063	1
34	47	30	0	10	4700	340	0.000407	1545	1
35	45	32	5	10	4500	220	0.000930	1829	1
36	43	35	5	10	4300	220	0.000888	2046	1
37	1	1	1	10	100	340	0.000009	2225	1
38	51	45	0	10	5100	340	0.000441	1876	1
39	93	60	1	10	9300	340	0.000804	6952	1
40	81	60	5	10	8100	300	0.000900	2656	1
41	92	80	0	8	5888	340	0.000796	1829	1
42	80	80	0	8	5120	340	0.000692	3104	1
43	87	80	1	10	8700	340	0.000753	1621	1
44	43	56	0	10	4300	340	0.000372	2121	1
45	61	40	5	10	6100	260	0.000902	2726	1
46	100	70	0	8	6400	340	0.000865	1898	1
47	89	90	0	8	5696	340	0.000770	1732	1
48	86	80	5	10	8600	320	0.000840	2456	1
49	48	60	5	10	4800	240	0.000833	2874	1
50	99	65	1	10	9900	340	0.000856	4912	1
51	28	15	1	10	2800	340	0.000242	3613	1
52	81	30	1	10	8100	340	0.000701	1852	1
53	57	40	0	10	5700	340	0.000493	2604	1
54	52	35	1	10	5200	340	0.000450	2390	1
55	12	10	5	10	1200	120	0.000833	1939	1
56	29	20	5	10	2900	180	0.000895	1769	1
57	99	60	0	8	6336	340	0.000856	1626	1
58	7	8	1	10	700	340	0.000061	2165	1
59	59	36	5	10	5900	260	0.000873	3529	1
60	22	15	0	16	5632	336	0.000195	4464	1
61	46	23	1	10	4600	340	0.000398	1765	1
62	75	40	0	8	4800	340	0.000649	1880	1
63	8	6	5	10	800	100	0.000800	2022	1
64	17	10	0	18	5508	336	0.000151	3905	1
65	33	12	1	10	3300	340	0.000285	2310	1
66	17	10	5	10	1700	140	0.000867	1993	1
67	70	35	0	8	4480	340	0.000606	2750	1
68	26	20	0	14	5096	336	0.000230	1981	1
69	97	40	0	8	6208	340	0.000839	2198	1
70	80	45	5	10	8000	300	0.000889	1755	1
71	4	4	1	10	400	340	0.000035	1915	1
72	49	20	0	10	4900	340	0.000424	2153	1
73	34	20	0	12	4896	336	0.000301	4895	1
74	27	12	5	10	2700	180	0.000833	1718	1
75	14	10	1	10	1400	340	0.000121	3505	1
76	7	5	0	24	4032	324	0.000067	1804	1
77	29	15	0	14	5684	336	0.000257	2371	1
78	31	20	0	12	4464	336	0.000275	1565	1
79	30	25	0	12	4320	336	0.000266	2355	1
80	100	50	1	10	10000	340	0.000865	2110	1
81	10	12	5	10	1000	100	0.001000	3660	1
82	4	4	0	24	2304	324	0.000038	1598	1
83	66	35	5	10	6600	280	0.000842	2453	1
84	83	20	0	8	5312	340	0.000718	3185	1
85	65	30	1	10	6500	340	0.000562	4281	1
86	83	50	1	10	8300	340	0.000718	7602	1
87	67	40	1	10	6700	340	0.000580	1949	1
88	2	2	1	10	200	340	0.000017	1445	1
89	32	30	5	10	3200	200	0.000800	7911	1
90	73	30	1	10	7300	340	0.000631	5208	1
91	12	12	1	10	1200	340	0.000104	1620	1
92	62	30	1	10	6200	340	0.000536	2256	1
93	63	35	1	10	6300	340	0.000545	1874	1
94	43	25	1	10	4300	340	0.000372	2065	1
95	51	25	5	10	5100	240	0.000885	1743	1
96	62	30	5	10	6200	260	0.000917	1538	1
97	46	30	5	10	4600	240	0.000799	1717	1
98	7	6	5	10	700	100	0.000700	1802	1
99	26	18	1	10	2600	340	0.000225	2256	1
100	37	24	1	10	3700	340	0.000320	1874	1
101	11	8	5	10	1100	120	0.000764	1755	1
102	95	50	0	8	6080	340	0.000822	3254	1
103	76	40	5	10	7600	300	0.000844	2640	1
104	54	35	1	10	5400	340	0.000467	2645	1
105	62	34	0	8	3968	340	0.000536	3391	1
106	86	43	0	8	5504	340	0.000744	1709	1
107	50	40	1	10	5000	340	0.000433	3401	1
108	44	30	0	10	4400	340	0.000381	1590	1
109	15	16	5	10	1500	140	0.000765	3940	1
110	15	10	0	18	4860	336	0.000133	2496	1
111	73	23	5	10	7300	300	0.000811	2297	1
112	4	4	5	10	400	100	0.000400	1436	1
113	80	20	1	10	8000	340	0.000692	3864	1
114	87	46	0	8	5568	340	0.000753	2517	1
115	98	60	0	8	6272	340	0.000848	2316	1
116	53	20	5	10	5300	240	0.000920	1923	1
117	58	35	0	10	5800	340	0.000502	2215	1
118	29	15	1	10	2900	340	0.000251	1860	1
119	68	25	1	10	6800	340	0.000588	1527	1
120	92	30	1	10	9200	340	0.000796	1681	1
121	48	25	1	10	4800	340	0.000415	1781	1
122	40	20	0	12	5760	336	0.000354	1710	1
123	66	25	0	8	4224	340	0.000571	1601	1
124	72	30	5	10	7200	280	0.000918	1555	1
125	39	30	0	12	5616	336	0.000345	2542	1
126	55	25	1	10	5500	340	0.000476	2047	1
127	77	30	1	10	7700	340	0.000666	1506	1
128	78	40	1	10	7800	340	0.000675	1823	1
129	90	50	0	8	5760	340	0.000779	1906	1
130	73	40	0	8	4672	340	0.000631	1884	1
131	14	10	5	10	1400	120	0.000972	1755	1
132	14	10	0	18	4536	336	0.000124	1921	1
133	8	9	0	24	4608	324	0.000076	2219	1
134	42	16	0	10	4200	340	0.000363	2144	1
135	34	15	5	10	3400	200	0.000850	1985	1
136	70	29	5	10	7000	280	0.000893	2225	1
137	67	30	5	10	6700	280	0.000855	1734	1
138	22	12	1	10	2200	340	0.000190	2178	1
139	11	13	1	10	1100	340	0.000095	2364	1
140	23	15	0	14	4508	336	0.000204	1827	1
141	15	15	1	10	1500	340	0.000130	3104	1
142	71	25	0	8	4544	340	0.000614	2365	1
143	45	25	1	10	4500	340	0.000389	1424	1
144	23	25	1	10	2300	340	0.000199	1741	1
145	79	25	5	10	7900	300	0.000878	1735	1
146	36	20	5	10	3600	200	0.000900	1881	1
147	1	2	5	10	100	100	0.000100	2975	1
148	25	20	5	10	2500	160	0.000977	8357	1
149	89	40	1	10	8900	340	0.000770	2458	1
150	83	40	5	10	8300	300	0.000922	2721	1
151	51	20	1	10	5100	340	0.000441	35110	1
152	91	25	5	10	9100	320	0.000889	3704	1
153	9	7	0	24	5184	324	0.000086	2348	1
154	94	19	5	10	9400	320	0.000918	9941	1
155	63	25	0	8	4032	340	0.000545	1569	1
156	93	30	5	10	9300	320	0.000908	1809	1
157	84	36	5	10	8400	320	0.000820	1656	1
158	6	5	5	10	600	100	0.000600	1551	1
159	90	20	5	10	9000	320	0.000879	1799	1
160	96	36	0	8	6144	340	0.000830	2667	1
161	88	40	0	8	5632	340	0.000761	1630	1
162	67	35	0	8	4288	340	0.000580	3085	1
163	21	20	1	10	2100	340	0.000182	2413	1
164	75	26	1	10	7500	340	0.000649	2010	1
165	23	10	5	10	2300	160	0.000898	2136	1
166	74	20	1	10	7400	340	0.000640	1657	1
167	50	25	0	10	5000	340	0.000433	1772	1
168	96	35	1	10	9600	340	0.000830	3221	1
169	54	25	0	10	5400	340	0.000467	2482	1
170	87	35	5	10	8700	320	0.000850	1685	1
171	66	31	1	10	6600	340	0.000571	2045	1
172	13	6	5	10	1300	120	0.000903	1788	1
173	74	20	5	10	7400	300	0.000822	2399	1
174	55	30	0	10	5500	340	0.000476	1715	1
175	47	30	1	10	4700	340	0.000407	1385	1
176	88	40	5	10	8800	320	0.000859	2117	1
177	46	20	0	10	4600	340	0.000398	2189	1
178	2	2	5	10	200	100	0.000200	1354	1
179	69	23	1	10	6900	340	0.000597	2853	1
180	22	10	5	10	2200	160	0.000859	2087	1
181	36	15	0	12	5184	336	0.000319	1719	1
182	11	8	0	22	5324	320	0.000107	2138	1
183	13	9	0	20	5200	320	0.000127	1533	1
184	86	24	1	10	8600	340	0.000744	2155	1
185	27	16	0	14	5292	336	0.000239	1913	1
186	20	15	1	10	2000	340	0.000173	2526	1
187	54	20	5	10	5400	240	0.000937	3202	1
188	65	20	0	8	4160	340	0.000562	3018	1
189	94	32	1	10	9400	340	0.000813	4713	1
190	41	25	5	10	4100	220	0.000847	6520	1
191	85	30	1	10	8500	340	0.000735	1780	1
192	38	20	1	10	3800	340	0.000329	1597	1
193	74	35	0	8	4736	340	0.000640	1752	1
194	57	25	5	10	5700	260	0.000843	3420	1
195	56	20	5	10	5600	260	0.000828	3720	1
196	18	14	1	10	1800	340	0.000156	2140	1
197	12	8	0	20	4800	320	0.000117	1813	1
198	95	31	1	10	9500	340	0.000822	2707	1
199	16	8	0	18	5184	336	0.000142	1977	1
200	50	26	5	10	5000	240	0.000868	5621	1
201	49	20	5	10	4900	240	0.000851	2857	1
202	91	25	1	10	9100	340	0.000787	3218	1
203	32	15	0	12	4608	336	0.000283	1808	1
204	13	10	1	10	1300	340	0.000112	1836	1
205	3	3	5	10	300	100	0.000300	1250	1
206	19	10	5	10	1900	140	0.000969	1617	1
207	10	10	1	10	1000	340	0.000087	1524	1
208	56	20	0	10	5600	340	0.000484	1645	1
209	72	30	1	10	7200	340	0.000623	1430	1
210	60	35	1	10	6000	340	0.000519	1961	1
211	3	3	1	10	300	340	0.000026	1131	1
212	16	9	5	10	1600	140	0.000816	2720	1
213	59	16	0	10	5900	340	0.000510	2411	1
214	35	20	0	12	5040	336	0.000310	1777	1
215	89	30	5	10	8900	320	0.000869	2240	1
216	97	32	1	10	9700	340	0.000839	1705	1
217	37	32	5	10	3700	200	0.000925	1600	1
218	40	20	1	10	4000	340	0.000346	2089	1
219	64	26	0	8	4096	340	0.000554	1555	1
220	56	28	1	10	5600	340	0.000484	2659	1
221	92	30	5	10	9200	320	0.000898	1843	1
222	64	25	1	10	6400	340	0.000554	1780	1
223	75	25	5	10	7500	300	0.000833	1965	1
224	5	6	1	10	500	340	0.000043	1953	1
225	33	16	0	12	4752	336	0.000292	1938	1
226	76	29	1	10	7600	340	0.000657	2147	1
227	71	30	5	10	7100	280	0.000906	4836	1
228	77	35	5	10	7700	300	0.000856	1678	1
229	27	16	1	10	2700	340	0.000234	3451	1
230	63	20	5	10	6300	260	0.000932	1790	1
231	2	2	0	24	1152	324	0.000019	1215	1
232	79	26	0	8	5056	340	0.000683	2139	1
233	60	28	5	10	6000	260	0.000888	1986	1
234	24	10	1	10	2400	340	0.000208	4539	1
235	35	12	5	10	3500	200	0.000875	2304	1
236	21	15	5	10	2100	160	0.000820	1683	1
237	9	7	1	10	900	340	0.000078	2961	1
238	18	10	5	10	1800	140	0.000918	1968	1
239	85	25	5	10	8500	320	0.000830	2483	1
240	88	30	1	10	8800	340	0.000761	2985	1
241	72	30	0	8	4608	340	0.000623	1842	1
242	64	30	5	10	6400	280	0.000816	1308	1
243	60	30	0	10	6000	340	0.000519	1616	1
244	44	25	1	10	4400	340	0.000381	2527	1
245	58	20	5	10	5800	260	0.000858	1889	1
246	79	26	1	10	7900	340	0.000683	2531	1
247	47	30	5	10	4700	240	0.000816	2870	1
248	69	25	5	10	6900	280	0.000880	2598	1
249	52	25	0	10	5200	340	0.000450	3077	1
250	40	25	5	10	4000	220	0.000826	1593	1
251	78	22	5	10	7800	300	0.000867	3286	1
252	95	30	5	10	9500	340	0.000822	1568	1
253	65	30	5	10	6500	280	0.000829	1481	1
254	97	30	5	10	9700	340	0.000839	1716	1
255	3	3	0	24	1728	324	0.000029	1189	1
256	52	33	5	10	5200	240	0.000903	1292	1
257	84	40	1	10	8400	340	0.000727	2389	1
258	30	18	5	10	3000	180	0.000926	2432	1
259	38	17	0	12	5472	336	0.000337	2219	1
260	37	15	0	12	5328	336	0.000328	1559	1
261	6	7	0	24	3456	324	0.000057	3034	1
262	17	10	1	10	1700	340	0.000147	1850	1
263	34	15	1	10	3400	340	0.000294	1965	1
264	70	22	1	10	7000	340	0.000606	1814	1
265	59	30	1	10	5900	340	0.000510	2701	1
266	6	6	1	10	600	340	0.000052	1560	1
267	77	25	0	8	4928	340	0.000666	2317	1
268	35	25	1	10	3500	340	0.000303	3593	1
269	41	25	0	12	5904	336	0.000363	1661	1
270	31	15	5	10	3100	180	0.000957	2425	1
271	76	22	0	8	4864	340	0.000657	1692	1
272	25	20	1	10	2500	340	0.000216	1836	1
273	68	25	0	8	4352	340	0.000588	3914	1
274	28	10	5	10	2800	180	0.000864	1546	1
275	91	32	0	8	5824	340	0.000787	1793	1
276	45	32	0	10	4500	340	0.000389	4099	1
277	85	30	0	8	5440	340	0.000735	1543	1
278	100	32	5	10	10000	340	0.000865	1331	1
279	36	20	1	10	3600	340	0.000311	2618	1
280	96	25	5	10	9600	340	0.000830	1397	1
281	93	30	0	8	5952	340	0.000804	1292	1
282	19	10	1	10	1900	340	0.000164	1933	1
283	5	4	5	10	500	100	0.000500	1827	1
284	61	20	1	10	6100	340	0.000528	2830	1
285	84	30	0	8	5376	340	0.000727	1776	1
286	18	10	0	16	4608	336	0.000159	2213	1
287	42	23	1	10	4200	340	0.000363	2859	1
288	21	10	0	16	5376	336	0.000186	2144	1
289	38	15	5	10	3800	200	0.000950	2216	1
290	24	12	0	14	4704	336	0.000213	1644	1
291	24	12	5	10	2400	160	0.000937	1459	1
292	9	8	5	10	900	100	0.000900	1816	1
293	48	12	0	10	4800	340	0.000415	3180	1
294	94	10	0	8	6016	340	0.000813	4214	1
295	99	30	5	10	9900	340	0.000856	1578	1
296	81	20	0	8	5184	340	0.000701	4404	1
297	61	23	0	10	6100	340	0.000528	1500	1
298	57	20	1	10	5700	340	0.000493	1757	1
299	10	5	0	22	4840	320	0.000098	1426	1
300	1	1	0	24	576	324	0.000010	1808	1
301	72	20	5	10	7200	280	0.000918	2028	1
302	100	30	5	10	10000	340	0.000865	2095	1
303	61	30	0	10	6100	340	0.000528	1405	1
304	74	30	1	10	7400	340	0.000640	1194	1
305	55	30	0	10	5500	340	0.000476	1452	1
306	53	25	0	10	5300	340	0.000458	2229	1
307	29	20	1	10	2900	340	0.000251	2494	1
308	16	10	1	10	1600	340	0.000138	1442	1
309	74	25	5	10	7400	300	0.000822	1551	1
310	32	16	5	10	3200	200	0.000800	2567	1
311	81	35	0	8	5184	340	0.000701	1813	1
312	51	44	0	10	5100	340	0.000441	1885	1
313	65	40	0	8	4160	340	0.000562	2173	1
314	78	40	0	8	4992	340	0.000675	4456	1
315	99	50	1	10	9900	340	0.000856	1774	1
316	63	35	5	10	6300	260	0.000932	2189	1
317	10	7	0	22	4840	320	0.000098	2366	1
318	60	20	5	10	6000	260	0.000888	1523	1
319	31	16	5	10	3100	180	0.000957	2903	1
320	95	58	0	8	6080	340	0.000822	3674	1
321	77	32	5	10	7700	300	0.000856	2240	1
322	66	35	1	10	6600	340	0.000571	2298	1
323	46	30	0	10	4600	340	0.000398	1431	1
324	49	22	1	10	4900	340	0.000424	2362	1
325	89	45	0	8	5696	340	0.000770	2881	1
326	3	3	0	24	1728	324	0.000029	1736	1
327	10	10	1	10	1000	340	0.000087	2487	1
328	44	25	1	10	4400	340	0.000381	5015	1
329	83	30	5	10	8300	300	0.000922	2204	1
330	43	20	0	10	4300	340	0.000372	1976	1
331	78	36	1	10	7800	340	0.000675	2767	1
332	91	48	0	8	5824	340	0.000787	2189	1
333	45	25	5	10	4500	220	0.000930	2070	1
334	62	20	0	8	3968	340	0.000536	8760	1
335	20	15	1	10	2000	340	0.000173	2374	1
336	78	15	5	10	7800	300	0.000867	4273	1
337	57	23	1	10	5700	340	0.000493	3163	1
338	26	12	0	14	5096	336	0.000230	2186	1
339	44	20	0	10	4400	340	0.000381	2469	1
340	88	30	5	10	8800	320	0.000859	1955	1
341	38	20	0	12	5472	336	0.000337	1739	1
342	60	25	0	10	6000	340	0.000519	1872	1
343	73	26	0	8	4672	340	0.000631	2060	1
344	33	23	5	10	3300	200	0.000825	1410	1
345	8	5	5	10	800	100	0.000800	1522	1
346	84	24	1	10	8400	340	0.000727	1977	1
347	99	45	0	8	6336	340	0.000856	1835	1
348	38	23	1	10	3800	340	0.000329	4519	1
349	21	12	0	16	5376	336	0.000186	2347	1
350	71	26	0	8	4544	340	0.000614	1677	1
351	28	16	5	10	2800	180	0.000864	3021	1
352	5	5	5	10	500	100	0.000500	1274	1
353	13	8	0	20	5200	320	0.000127	1708	1
354	21	11	1	10	2100	340	0.000182	2040	1
355	95	33	1	10	9500	340	0.000822	3421	1
356	46	26	1	10	4600	340	0.000398	3004	1
357	12	8	5	10	1200	120	0.000833	1740	1
358	20	13	0	16	5120	336	0.000177	2175	1
359	50	24	5	10	5000	240	0.000868	1832	1
360	87	46	5	10	8700	320	0.000850	2440	1
361	63	30	1	10	6300	340	0.000545	2160	1
362	62	25	5	10	6200	260	0.000917	1437	1
363	49	23	0	10	4900	340	0.000424	1947	1
364	97	34	5	10	9700	340	0.000839	1941	1
365	82	35	5	10	8200	300	0.000911	1406	1
366	98	40	0	8	6272	340	0.000848	2001	1
367	7	6	0	24	4032	324	0.000067	1563	1
368	14	7	5	10	1400	120	0.000972	1714	1
369	100	24	1	10	10000	340	0.000865	2694	1
370	18	8	0	16	4608	336	0.000159	1645	1
371	27	16	0	14	5292	336	0.000239	1922	1
372	4	4	5	10	400	100	0.000400	1410	1
373	36	19	0	12	5184	336	0.000319	1930	1
374	79	20	5	10	7900	300	0.000878	6854	1
375	72	20	0	8	4608	340	0.000623	2444	1
376	42	20	5	10	4200	220	0.000868	2562	1
377	8	8	1	10	800	340	0.000069	1556	1
378	83	36	0	8	5312	340	0.000718	2183	1
379	17	12	5	10	1700	140	0.000867	3674	1
380	40	21	1	10	4000	340	0.000346	2219	1
381	86	36	1	10	8600	340	0.000744	2124	1
382	93	45	5	10	9300	320	0.000908	2075	1
383	26	11	5	10	2600	180	0.000802	2108	1
384	9	8	0	24	5184	324	0.000086	1669	1
385	90	26	0	8	5760	340	0.000779	2169	1
386	22	16	1	10	2200	340	0.000190	1883	1
387	93	26	1	10	9300	340	0.000804	2819	1
388	31	25	0	12	4464	336	0.000275	1802	1
389	87	26	0	8	5568	340	0.000753	2452	1
390	34	24	5	10	3400	200	0.000850	2849	1
391	90	26	1	10	9000	340	0.000779	2110	1
392	66	32	0	8	4224	340	0.000571	2599	1
393	70	30	5	10	7000	280	0.000893	1419	1
394	19	15	1	10	1900	340	0.000164	2126	1
395	82	20	1	10	8200	340	0.000709	2509	1
396	52	23	0	10	5200	340	0.000450	1410	1
397	52	26	1	10	5200	340	0.000450	1446	1
398	44	24	5	10	4400	220	0.000909	1574	1
399	35	24	0	12	5040	336	0.000310	1988	1
400	60	20	1	10	6000	340	0.000519	2346	1
401	68	34	1	10	6800	340	0.000588	3970	1
402	27	30	1	10	2700	340	0.000234	2106	1
403	98	36	1	10	9800	340	0.000848	1689	1
404	46	30	5	10	4600	240	0.000799	1599	1
405	65	30	1	10	6500	340	0.000562	1331	1
406	12	9	1	10	1200	340	0.000104	1544	1
407	41	14	5	10	4100	220	0.000847	2031	1
408	59	15	0	10	5900	340	0.000510	1897	1
409	63	16	0	8	4032	340	0.000545	1537	1
410	41	16	1	10	4100	340	0.000355	2610	1
411	96	32	0	8	6144	340	0.000830	1688	1
412	29	14	0	14	5684	336	0.000257	2122	1
413	84	12	5	10	8400	320	0.000820	1707	1
414	79	30	0	8	5056	340	0.000683	3726	1
415	13	8	5	10	1300	120	0.000903	2701	1
416	22	14	5	10	2200	160	0.000859	2018	1
417	95	30	5	10	9500	340	0.000822	2215	1
418	85	35	0	8	5440	340	0.000735	1430	1
419	36	16	5	10	3600	200	0.000900	2254	1
420	3	3	1	10	300	340	0.000026	1130	1
421	73	19	5	10	7300	300	0.000811	2432	1
422	28	14	0	14	5488	336	0.000248	1606	1
423	34	20	1	10	3400	340	0.000294	1954	1
424	77	22	1	10	7700	340	0.000666	2384	1
425	15	8	5	10	1500	140	0.000765	2378	1
426	76	26	5	10	7600	300	0.000844	2268	1
427	30	20	5	10	3000	180	0.000926	4063	1
428	99	33	5	10	9900	340	0.000856	1729	1
429	49	25	5	10	4900	240	0.000851	2089	1
430	6	4	5	10	600	100	0.000600	1580	1
431	69	6	0	8	4416	340	0.000597	2466	1
432	35	19	1	10	3500	340	0.000303	1775	1
433	96	23	5	10	9600	340	0.000830	1814	1
434	88	30	1	10	8800	340	0.000761	2076	1
435	70	30	0	8	4480	340	0.000606	2112	1
436	77	30	0	8	4928	340	0.000666	1388	1
437	72	20	1	10	7200	340	0.000623	1458	1
438	86	20	5	10	8600	320	0.000840	1300	1
439	74	20	0	8	4736	340	0.000640	1219	1
440	79	25	1	10	7900	340	0.000683	1262	1
441	32	16	1	10	3200	340	0.000277	1621	1
442	93	32	0	8	5952	340	0.000804	2516	1
443	25	11	1	10	2500	340	0.000216	2115	1
444	32	12	0	12	4608	336	0.000283	1503	1
445	54	19	1	10	5400	340	0.000467	2100	1
446	15	9	0	18	4860	336	0.000133	1508	1
447	94	27	1	10	9400	340	0.000813	2299	1
448	48	24	0	10	4800	340	0.000415	3356	1
449	70	21	1	10	7000	340	0.000606	1821	1
450	97	25	0	8	6208	340	0.000839	1692	1
451	29	12	5	10	2900	180	0.000895	1924	1
452	67	23	0	8	4288	340	0.000580	1374	1
453	47	22	5	10	4700	240	0.000816	1309	1
454	96	28	1	10	9600	340	0.000830	1629	1
455	61	24	5	10	6100	260	0.000902	1588	1
456	56	29	0	10	5600	340	0.000484	1576	1
457	89	31	5	10	8900	320	0.000869	1831	1
458	10	8	5	10	1000	100	0.001000	1825	1
459	2	2	1	10	200	340	0.000017	1189	1
460	81	28	1	10	8100	340	0.000701	2191	1
461	5	6	1	10	500	340	0.000043	1534	1
462	85	27	1	10	8500	340	0.000735	1912	1
463	94	24	5	10	9400	320	0.000918	1484	1
464	100	29	0	8	6400	340	0.000865	1789	1
465	5	5	0	24	2880	324	0.000048	1551	1
466	51	23	5	10	5100	240	0.000885	2228	1
467	76	27	1	10	7600	340	0.000657	2171	1
468	19	8	5	10	1900	140	0.000969	2275	1
469	34	9	0	12	4896	336	0.000301	1950	1
470	9	9	1	10	900	340	0.000078	1932	1
471	94	33	0	8	6016	340	0.000813	2211	1
472	45	34	1	10	4500	340	0.000389	1973	1
473	2	2	0	24	1152	324	0.000019	1320	1
474	4	4	0	24	2304	324	0.000038	1541	1
475	89	6	1	10	8900	340	0.000770	1483	1
476	1	1	5	10	100	100	0.000100	4805	1
477	81	14	5	10	8100	300	0.000900	5508	1
478	73	22	1	10	7300	340	0.000631	2570	1
479	91	21	1	10	9100	340	0.000787	2036	1
480	97	21	1	10	9700	340	0.000839	1816	1
481	40	20	0	12	5760	336	0.000354	3268	1
482	7	21	5	10	700	100	0.000700	4440	1
483	41	21	0	12	5904	336	0.000363	8047	1
484	64	21	5	10	6400	280	0.000816	1886	1
485	18	16	1	10	1800	340	0.000156	4916	1
486	14	16	1	10	1400	340	0.000121	1989	1
487	92	23	5	10	9200	320	0.000898	1729	1
488	40	20	5	10	4000	220	0.000826	1972	1
489	28	19	1	10	2800	340	0.000242	2133	1
490	30	18	1	10	3000	340	0.000260	2065	1
491	30	19	0	12	4320	336	0.000266	3182	1
492	43	19	5	10	4300	220	0.000888	2719	1
493	37	22	1	10	3700	340	0.000320	1942	1
494	18	20	5	10	1800	140	0.000918	3390	1
495	65	23	5	10	6500	280	0.000829	1517	1
496	1	1	0	24	576	324	0.000010	1768	1
497	23	12	1	10	2300	340	0.000199	2467	1
498	17	14	1	10	1700	340	0.000147	1790	1
499	82	25	0	8	5248	340	0.000709	1684	1
500	11	7	5	10	1100	120	0.000764	1971	1
501	56	14	1	10	5600	340	0.000484	2482	1
502	4	4	1	10	400	340	0.000035	1412	1
503	15	13	1	10	1500	340	0.000130	1971	1
504	68	23	0	8	4352	340	0.000588	1717	1
505	66	22	5	10	6600	280	0.000842	1458	1
506	27	19	5	10	2700	180	0.000833	3293	1
507	33	20	1	10	3300	340	0.000285	1316	1
508	3	3	5	10	300	100	0.000300	1050	1
509	20	11	5	10	2000	160	0.000781	1645	1
510	11	9	1	10	1100	340	0.000095	1474	1
511	55	19	1	10	5500	340	0.000476	1742	1
512	31	20	1	10	3100	340	0.000268	1299	1
513	98	28	5	10	9800	340	0.000848	2128	1
514	54	24	0	10	5400	340	0.000467	3479	1
515	52	23	5	10	5200	240	0.000903	1980	1
516	43	23	1	10	4300	340	0.000372	1196	1
517	25	19	5	10	2500	160	0.000977	1560	1
518	17	9	0	18	5508	336	0.000151	1511	1
519	64	17	1	10	6400	340	0.000554	2135	1
520	69	16	1	10	6900	340	0.000597	1642	1
521	71	18	5	10	7100	280	0.000906	2444	1
522	67	20	1	10	6700	340	0.000580	2076	1
523	23	19	5	10	2300	160	0.000898	2131	1
524	39	20	1	10	3900	340	0.000337	1499	1
525	45	20	0	10	4500	340	0.000389	1499	1
526	68	20	5	10	6800	280	0.000867	1320	1
527	37	17	5	10	3700	200	0.000925	2197	1
528	58	25	0	10	5800	340	0.000502	2415	1
529	38	20	5	10	3800	200	0.000950	2790	1
530	57	21	0	10	5700	340	0.000493	2282	1
531	51	23	1	10	5100	340	0.000441	1638	1
532	19	9	0	16	4864	336	0.000168	2891	1
533	23	9	0	14	4508	336	0.000204	2123	1
534	13	10	1	10	1300	340	0.000112	1769	1
535	24	11	0	14	4704	336	0.000213	1992	1
536	85	19	5	10	8500	320	0.000830	2162	1
537	47	12	1	10	4700	340	0.000407	5640	1
538	53	19	1	10	5300	340	0.000458	2016	1
539	67	23	5	10	6700	280	0.000855	1154	1
540	2	2	5	10	200	100	0.000200	1153	1
541	75	20	1	10	7500	340	0.000649	1626	1
542	87	20	1	10	8700	340	0.000753	1463	1
543	39	19	0	12	5616	336	0.000345	1711	1
544	39	19	5	10	3900	220	0.000806	1665	1
545	6	6	1	10	600	340	0.000052	1506	1
546	80	24	1	10	8000	340	0.000692	2362	1
547	75	24	5	10	7500	300	0.000833	1817	1
548	88	29	0	8	5632	340	0.000761	1809	1
549	69	25	5	10	6900	280	0.000880	2102	1
550	91	23	5	10	9100	320	0.000889	1626	1
551	57	14	5	10	5700	260	0.000843	5331	1
552	1	1	1	10	100	340	0.000009	1534	1
553	48	15	1	10	4800	340	0.000415	1693	1
554	22	14	0	16	5632	336	0.000195	1534	1
555	21	12	5	10	2100	160	0.000820	1341	1
556	42	13	1	10	4200	340	0.000363	1431	1
557	9	6	5	10	900	100	0.000900	1546	1
558	83	24	1	10	8300	340	0.000718	2305	1
559	64	28	0	8	4096	340	0.000554	1710	1
560	48	24	5	10	4800	240	0.000833	1709	1
561	47	23	0	10	4700	340	0.000407	1392	1
562	37	24	0	12	5328	336	0.000328	1668	1
563	50	28	1	10	5000	340	0.000433	1666	1
564	58	21	5	10	5800	260	0.000858	1847	1
565	54	15	5	10	5400	240	0.000937	2455	1
566	76	30	0	8	4864	340	0.000657	2218	1
567	12	8	0	20	4800	320	0.000117	1464	1
568	71	22	1	10	7100	340	0.000614	2778	1
569	92	24	0	8	5888	340	0.000796	2704	1
570	25	12	0	14	4900	336	0.000221	2408	1
571	56	11	5	10	5600	260	0.000828	2571	1
572	58	18	1	10	5800	340	0.000502	2369	1
573	55	16	5	10	5500	260	0.000814	2238	1
574	16	10	0	18	5184	336	0.000142	2174	1
575	24	12	1	10	2400	340	0.000208	1579	1
576	35	13	5	10	3500	200	0.000875	2009	1
577	50	14	0	10	5000	340	0.000433	2183	1
578	61	24	1	10	6100	340	0.000528	8177	1
579	90	20	5	10	9000	320	0.000879	6451	1
580	8	7	0	24	4608	324	0.000076	1841	1
581	80	14	0	8	5120	340	0.000692	1454	1
582	36	15	1	10	3600	340	0.000311	1813	1
583	75	19	0	8	4800	340	0.000649	2754	1
584	16	13	5	10	1600	140	0.000816	2235	1
585	6	6	0	24	3456	324	0.000057	1256	1
586	59	19	5	10	5900	260	0.000873	2027	1
587	80	19	5	10	8000	300	0.000889	2731	1
588	33	17	0	12	4752	336	0.000292	1919	1
589	26	16	1	10	2600	340	0.000225	1809	1
590	59	20	1	10	5900	340	0.000510	1503	1
591	62	14	1	10	6200	340	0.000536	5366	1
592	53	16	5	10	5300	240	0.000920	1723	1
593	11	8	0	22	5324	320	0.000107	1639	1
594	84	28	0	8	5376	340	0.000727	2450	1
595	42	25	0	10	4200	340	0.000363	2411	1
596	24	10	5	10	2400	160	0.000937	1685	1
597	86	30	0	8	5504	340	0.000744	2229	1
598	14	9	0	18	4536	336	0.000124	1566	1
599	92	29	1	10	9200	340	0.000796	1842	1
600	7	6	1	10	700	340	0.000061	1455	1
1	90	35	0	8	5760	340	0.000779	4377	1
2	62	40	0	8	3968	340	0.000536	1848	1
3	16	12	0	18	5184	336	0.000142	2240	1
4	87	36	1	10	8700	340	0.000753	1906	1
5	47	18	5	10	4700	240	0.000816	2579	1
6	5	4	5	10	500	100	0.000500	1453	1
7	71	25	5	10	7100	280	0.000906	1825	1
8	61	32	5	10	6100	260	0.000902	1470	1
9	91	40	0	8	5824	340	0.000787	1880	1
10	67	31	0	8	4288	340	0.000580	3366	1
11	54	23	0	10	5400	340	0.000467	1926	1
12	81	35	0	8	5184	340	0.000701	1640	1
13	97	42	5	10	9700	340	0.000839	2073	1
14	70	30	5	10	7000	280	0.000893	1704	1
15	75	35	5	10	7500	300	0.000833	2898	1
16	67	26	1	10	6700	340	0.000580	1872	1
17	57	25	5	10	5700	260	0.000843	1358	1
18	34	23	5	10	3400	200	0.000850	1497	1
19	31	19	1	10	3100	340	0.000268	5395	1
20	45	24	1	10	4500	340	0.000389	1892	1
21	45	18	5	10	4500	220	0.000930	2121	1
22	15	22	0	18	4860	336	0.000133	5802	1
23	7	5	5	10	700	100	0.000700	1544	1
24	19	12	5	10	1900	140	0.000969	2277	1
25	52	20	1	10	5200	340	0.000450	2159	1
26	51	29	1	10	5100	340	0.000441	2438	1
27	25	18	1	10	2500	340	0.000216	2348	1
28	98	33	5	10	9800	340	0.000848	2065	1
29	35	25	1	10	3500	340	0.000303	1868	1
30	5	6	1	10	500	340	0.000043	1546	1
31	53	20	1	10	5300	340	0.000458	1570	1
32	89	36	1	10	8900	340	0.000770	1927	1
33	12	6	5	10	1200	120	0.000833	1895	1
34	28	6	0	14	5488	336	0.000248	2349	1
35	47	26	0	10	4700	340	0.000407	9414	1
36	68	30	1	10	6800	340	0.000588	2258	1
37	30	23	0	12	4320	336	0.000266	1996	1
38	68	30	0	8	4352	340	0.000588	1571	1
39	29	15	0	14	5684	336	0.000257	1764	1
40	34	21	1	10	3400	340	0.000294	1970	1
41	48	22	5	10	4800	240	0.000833	2895	1
42	2	2	5	10	200	100	0.000200	1064	1
43	82	28	1	10	8200	340	0.000709	3587	1
44	91	35	5	10	9100	320	0.000889	3121	1
45	61	20	1	10	6100	340	0.000528	2474	1
46	58	25	0	10	5800	340	0.000502	1487	1
47	100	26	5	10	10000	340	0.000865	1513	1
48	78	30	1	10	7800	340	0.000675	1666	1
49	35	22	0	12	5040	336	0.000310	3307	1
50	4	4	0	24	2304	324	0.000038	1688	1
51	17	12	5	10	1700	140	0.000867	2655	1
52	77	26	5	10	7700	300	0.000856	1858	1
53	12	12	1	10	1200	340	0.000104	2064	1
54	91	30	1	10	9100	340	0.000787	1676	1
55	48	31	1	10	4800	340	0.000415	2873	1
56	27	15	1	10	2700	340	0.000234	1832	1
57	29	14	5	10	2900	180	0.000895	2040	1
58	59	25	1	10	5900	340	0.000510	1800	1
59	40	15	5	10	4000	220	0.000826	1629	1
60	94	32	0	8	6016	340	0.000813	1562	1
61	22	12	1	10	2200	340	0.000190	1956	1
62	77	30	1	10	7700	340	0.000666	2347	1
63	65	26	5	10	6500	280	0.000829	2383	1
64	95	32	1	10	9500	340	0.000822	2014	1
65	96	38	0	8	6144	340	0.000830	2852	1
66	20	10	1	10	2000	340	0.000173	1721	1
67	36	14	1	10	3600	340	0.000311	2496	1
68	33	22	0	12	4752	336	0.000292	6885	1
69	70	35	0	8	4480	340	0.000606	2255	1
70	17	12	1	10	1700	340	0.000147	1520	1
71	88	36	5	10	8800	320	0.000859	1855	1
72	54	24	5	10	5400	240	0.000937	1821	1
73	45	22	0	10	4500	340	0.000389	2302	1
74	5	5	0	24	2880	324	0.000048	1514	1
75	85	26	0	8	5440	340	0.000735	2231	1
76	75	30	1	10	7500	340	0.000649	2806	1
77	31	15	5	10	3100	180	0.000957	1591	1
78	32	19	1	10	3200	340	0.000277	1997	1
79	97	24	1	10	9700	340	0.000839	1709	1
80	57	25	0	10	5700	340	0.000493	1764	1
81	46	32	1	10	4600	340	0.000398	2500	1
82	62	32	5	10	6200	260	0.000917	2260	1
83	15	6	5	10	1500	140	0.000765	1847	1
84	14	14	1	10	1400	340	0.000121	2722	1
85	82	29	5	10	8200	300	0.000911	2904	1
86	98	35	1	10	9800	340	0.000848	4449	1
87	73	26	5	10	7300	300	0.000811	2578	1
88	46	32	5	10	4600	240	0.000799	3609	1
89	89	40	0	8	5696	340	0.000770	2247	1
90	3	3	5	10	300	100	0.000300	1303	1
91	36	9	5	10	3600	200	0.000900	2206	1
92	10	9	0	22	4840	320	0.000098	1635	1
93	58	16	5	10	5800	260	0.000858	1816	1
94	97	40	0	8	6208	340	0.000839	1986	1
95	76	30	1	10	7600	340	0.000657	6646	1
96	72	40	0	8	4608	340	0.000623	3963	1
97	32	15	5	10	3200	200	0.000800	1833	1
98	93	35	1	10	9300	340	0.000804	3307	1
99	24	14	0	14	4704	336	0.000213	1738	1
100	24	16	1	10	2400	340	0.000208	2837	1
101	41	24	0	12	5904	336	0.000363	2569	1
102	44	20	5	10	4400	220	0.000909	1451	1
103	51	23	5	10	5100	240	0.000885	1155	1
104	26	20	0	14	5096	336	0.000230	1872	1
105	86	30	1	10	8600	340	0.000744	1456	1
106	65	30	0	8	4160	340	0.000562	1801	1
107	22	11	0	16	5632	336	0.000195	2380	1
108	49	23	0	10	4900	340	0.000424	2122	1
109	2	2	1	10	200	340	0.000017	1147	1
110	4	4	1	10	400	340	0.000035	1369	1
111	93	35	0	8	5952	340	0.000804	2093	1
112	40	24	1	10	4000	340	0.000346	1690	1
113	69	36	0	8	4416	340	0.000597	1514	1
114	94	42	5	10	9400	320	0.000918	1679	1
115	9	6	5	10	900	100	0.000900	1837	1
116	30	12	5	10	3000	180	0.000926	1852	1
117	37	21	1	10	3700	340	0.000320	2692	1
118	82	38	0	8	5248	340	0.000709	2168	1
119	50	36	0	10	5000	340	0.000433	1561	1
120	64	39	5	10	6400	280	0.000816	1588	1
121	72	34	5	10	7200	280	0.000918	1570	1
122	59	36	0	10	5900	340	0.000510	3551	1
123	43	20	5	10	4300	220	0.000888	1666	1
124	27	23	0	14	5292	336	0.000239	1533	1
125	32	20	0	12	4608	336	0.000283	1624	1
126	20	19	5	10	2000	160	0.000781	3266	1
127	43	23	1	10	4300	340	0.000372	1895	1
128	1	1	5	10	100	100	0.000100	1475	1
129	100	41	1	10	10000	340	0.000865	1882	1
130	28	17	5	10	2800	180	0.000864	3561	1
131	18	11	1	10	1800	340	0.000156	2118	1
132	1	1	1	10	100	340	0.000009	1453	1
133	60	26	5	10	6000	260	0.000888	1735	1
134	6	6	5	10	600	100	0.000600	1307	1
135	94	38	1	10	9400	340	0.000813	3047	1
136	100	47	0	8	6400	340	0.000865	1940	1
137	35	16	5	10	3500	200	0.000875	2179	1
138	19	11	0	16	4864	336	0.000168	2257	1
139	66	20	1	10	6600	340	0.000571	3727	1
140	85	40	5	10	8500	320	0.000830	2317	1
141	38	36	1	10	3800	340	0.000329	3055	1
142	20	20	0	16	5120	336	0.000177	2337	1
143	74	23	5	10	7400	300	0.000822	4271	1
144	6	5	0	24	3456	324	0.000057	1704	1
145	74	34	1	10	7400	340	0.000640	3175	1
146	63	41	0	8	4032	340	0.000545	1887	1
147	42	31	1	10	4200	340	0.000363	3054	1
148	80	35	5	10	8000	300	0.000889	1821	1
149	56	36	1	10	5600	340	0.000484	1508	1
150	78	30	5	10	7800	300	0.000867	1774	1
151	13	9	5	10	1300	120	0.000903	1637	1
152	59	16	5	10	5900	260	0.000873	2185	1
153	10	8	1	10	1000	340	0.000087	1843	1
154	96	41	1	10	9600	340	0.000830	3255	1
155	80	45	0	8	5120	340	0.000692	1575	1
156	83	42	1	10	8300	340	0.000718	2062	1
157	55	32	1	10	5500	340	0.000476	1696	1
158	17	13	0	18	5508	336	0.000151	2174	1
159	22	12	5	10	2200	160	0.000859	2092	1
160	71	33	0	8	4544	340	0.000614	3414	1
161	13	10	0	20	5200	320	0.000127	2540	1
162	16	10	5	10	1600	140	0.000816	1870	1
163	99	31	1	10	9900	340	0.000856	3462	1
164	60	32	1	10	6000	340	0.000519	1397	1
165	42	21	5	10	4200	220	0.000868	2312	1
166	71	32	1	10	7100	340	0.000614	1523	1
167	67	32	5	10	6700	280	0.000855	1468	1
168	44	33	1	10	4400	340	0.000381	1963	1
169	56	20	5	10	5600	260	0.000828	1852	1
170	50	20	1	10	5000	340	0.000433	1686	1
171	54	23	1	10	5400	340	0.000467	1526	1
172	90	36	1	10	9000	340	0.000779	1656	1
173	27	11	5	10	2700	180	0.000833	2227	1
174	13	10	1	10	1300	340	0.000112	1646	1
175	69	16	1	10	6900	340	0.000597	2670	1
176	14	9	0	18	4536	336	0.000124	2058	1
177	66	29	0	8	4224	340	0.000571	2861	1
178	63	28	1	10	6300	340	0.000545	1652	1
179	64	35	1	10	6400	340	0.000554	1724	1
180	40	24	0	12	5760	336	0.000354	2116	1
181	79	23	5	10	7900	300	0.000878	1826	1
182	73	29	0	8	4672	340	0.000631	1974	1
183	57	28	1	10	5700	340	0.000493	1774	1
184	53	20	5	10	5300	240	0.000920	1806	1
185	23	14	5	10	2300	160	0.000898	1634	1
186	12	10	0	20	4800	320	0.000117	2292	1
187	50	17	5	10	5000	240	0.000868	2031	1
188	23	11	0	14	4508	336	0.000204	1728	1
189	83	29	5	10	8300	300	0.000922	2125	1
190	52	25	0	10	5200	340	0.000450	2791	1
191	92	36	0	8	5888	340	0.000796	1608	1
192	66	29	5	10	6600	280	0.000842	1997	1
193	33	15	5	10	3300	200	0.000825	2027	1
194	10	8	5	10	1000	100	0.001000	2174	1
195	76	29	5	10	7600	300	0.000844	2123	1
196	96	39	5	10	9600	340	0.000830	1738	1
197	4	4	5	10	400	100	0.000400	1353	1
198	81	25	5	10	8100	300	0.000900	1696	1
199	81	29	1	10	8100	340	0.000701	1609	1
200	18	12	0	16	4608	336	0.000159	1895	1
201	6	6	1	10	600	340	0.000052	1627	1
202	58	20	1	10	5800	340	0.000502	1927	1
203	41	20	5	10	4100	220	0.000847	1579	1
204	3	3	1	10	300	340	0.000026	1229	1
205	8	9	1	10	800	340	0.000069	2296	1
206	79	28	1	10	7900	340	0.000683	1980	1
207	36	22	0	12	5184	336	0.000319	2856	1
208	19	17	1	10	1900	340	0.000164	1912	1
209	56	21	0	10	5600	340	0.000484	2737	1
210	49	22	1	10	4900	340	0.000424	1746	1
211	21	20	0	16	5376	336	0.000186	1459	1
212	85	25	1	10	8500	340	0.000735	1574	1
213	9	7	1	10	900	340	0.000078	2181	1
214	61	19	0	10	6100	340	0.000528	2620	1
215	55	20	5	10	5500	260	0.000814	1512	1
216	47	20	1	10	4700	340	0.000407	1587	1
217	31	19	0	12	4464	336	0.000275	2026	1
218	72	33	1	10	7200	340	0.000623	1852	1
219	76	35	0	8	4864	340	0.000657	1722	1
220	26	21	1	10	2600	340	0.000225	3203	1
221	25	18	0	14	4900	336	0.000221	2002	1
222	77	23	0	8	4928	340	0.000666	2767	1
223	87	30	5	10	8700	320	0.000850	4220	1
224	39	24	5	10	3900	220	0.000806	2666	1
225	90	32	5	10	9000	320	0.000879	2635	1
226	49	30	5	10	4900	240	0.000851	4338	1
227	33	17	1	10	3300	340	0.000285	2004	1
228	84	23	1	10	8400	340	0.000727	3868	1
229	93	26	5	10	9300	320	0.000908	2066	1
230	25	13	5	10	2500	160	0.000977	2319	1
231	28	18	1	10	2800	340	0.000242	1813	1
232	7	8	0	24	4032	324	0.000067	2445	1
233	53	19	0	10	5300	340	0.000458	1720	1
234	64	24	0	8	4096	340	0.000554	1828	1
235	88	30	0	8	5632	340	0.000761	1743	1
236	34	28	0	12	4896	336	0.000301	2290	1
237	39	16	0	12	5616	336	0.000345	1752	1
238	86	32	0	8	5504	340	0.000744	3156	1
239	1	1	0	24	576	324	0.000010	1157	1
240	29	16	1	10	2900	340	0.000251	1649	1
241	48	19	0	10	4800	340	0.000415	1723	1
242	11	9	1	10	1100	340	0.000095	1463	1
243	38	14	5	10	3800	200	0.000950	3967	1
244	11	6	5	10	1100	120	0.000764	1605	1
245	80	33	1	10	8000	340	0.000692	1848	1
246	7	9	1	10	700	340	0.000061	1984	1
247	55	16	0	10	5500	340	0.000476	1947	1
248	62	26	1	10	6200	340	0.000536	2190	1
249	39	24	1	10	3900	340	0.000337	1931	1
250	73	22	1	10	7300	340	0.000631	2598	1
251	51	20	0	10	5100	340	0.000441	2384	1
252	92	40	1	10	9200	340	0.000796	2140	1
253	15	16	1	10	1500	340	0.000130	1882	1
254	37	16	5	10	3700	200	0.000925	2099	1
255	68	32	5	10	6800	280	0.000867	1538	1
256	95	45	5	10	9500	340	0.000822	1788	1
257	89	46	5	10	8900	320	0.000869	4281	1
258	84	47	5	10	8400	320	0.000820	2079	1
259	86	50	5	10	8600	320	0.000840	1969	1
260	44	41	0	10	4400	340	0.000381	2332	1
261	60	38	0	10	6000	340	0.000519	2883	1
262	99	40	5	10	9900	340	0.000856	1708	1
263	74	45	0	8	4736	340	0.000640	1848	1
264	18	12	5	10	1800	140	0.000918	1724	1
265	37	22	0	12	5328	336	0.000328	1805	1
266	16	24	1	10	1600	340	0.000138	1750	1
267	38	22	0	12	5472	336	0.000337	8260	1
268	2	2	0	24	1152	324	0.000019	1474	1
269	8	6	5	10	800	100	0.000800	1306	1
270	43	25	0	10	4300	340	0.000372	1703	1
271	84	36	0	8	5376	340	0.000727	2056	1
272	98	56	0	8	6272	340	0.000848	2093	1
273	11	8	0	22	5324	320	0.000107	1627	1
274	75	36	0	8	4800	340	0.000649	1818	1
275	92	38	5	10	9200	320	0.000898	3628	1
276	30	19	1	10	3000	340	0.000260	1893	1
277	41	25	1	10	4100	340	0.000355	3520	1
278	69	26	5	10	6900	280	0.000880	1679	1
279	63	26	5	10	6300	260	0.000932	1440	1
280	46	26	0	10	4600	340	0.000398	1435	1
281	8	6	0	24	4608	324	0.000076	1193	1
282	87	36	0	8	5568	340	0.000753	1460	1
283	24	15	5	10	2400	160	0.000937	1419	1
284	21	11	5	10	2100	160	0.000820	1495	1
285	52	15	5	10	5200	240	0.000903	1669	1
286	14	10	5	10	1400	120	0.000972	1538	1
287	9	8	0	24	5184	324	0.000086	1541	1
288	23	16	1	10	2300	340	0.000199	1894	1
289	26	20	5	10	2600	180	0.000802	2098	1
290	3	3	0	24	1728	324	0.000029	1114	1
291	88	35	1	10	8800	340	0.000761	2073	1
292	65	39	1	10	6500	340	0.000562	1794	1
293	79	36	0	8	5056	340	0.000683	2339	1
294	21	13	1	10	2100	340	0.000182	1681	1
295	42	20	0	10	4200	340	0.000363	1606	1
296	78	26	0	8	4992	340	0.000675	1459	1
297	70	32	1	10	7000	340	0.000606	1676	1
298	83	34	0	8	5312	340	0.000718	2329	1
299	99	36	0	8	6336	340	0.000856	1732	1
300	95	36	0	8	6080	340	0.000822	1698	1
301	67	25	1	10	6700	340	0.000580	2554	1
302	76	26	0	8	4864	340	0.000657	1559	1
303	63	20	5	10	6300	260	0.000932	1730	1
304	77	30	1	10	7700	340	0.000666	2015	1
305	41	20	5	10	4100	220	0.000847	2372	1
306	98	20	0	8	6272	340	0.000848	21843	1
307	64	30	0	8	4096	340	0.000554	1703	1
308	80	23	5	10	8000	300	0.000889	13835	1
309	69	30	0	8	4416	340	0.000597	1411	1
310	59	32	1	10	5900	340	0.000510	1296	1
311	80	40	0	8	5120	340	0.000692	2361	1
312	26	32	1	10	2600	340	0.000225	2152	1
313	47	32	1	10	4700	340	0.000407	1366	1
314	71	36	5	10	7100	280	0.000906	1529	1
315	75	30	5	10	7500	300	0.000833	1554	1
316	54	30	5	10	5400	240	0.000937	1381	1
317	9	6	5	10	900	100	0.000900	1306	1
318	99	35	5	10	9900	340	0.000856	1947	1
319	81	42	0	8	5184	340	0.000701	1626	1
320	63	34	1	10	6300	340	0.000545	1815	1
321	19	12	1	10	1900	340	0.000164	1685	1
322	30	15	1	10	3000	340	0.000260	1856	1
323	99	44	0	8	6336	340	0.000856	1738	1
324	39	20	0	12	5616	336	0.000345	1539	1
325	61	30	5	10	6100	260	0.000902	1492	1
326	36	20	0	12	5184	336	0.000319	1580	1
327	35	16	5	10	3500	200	0.000875	1894	1
328	79	29	5	10	7900	300	0.000878	2294	1
329	6	5	0	24	3456	324	0.000057	1376	1
330	89	29	0	8	5696	340	0.000770	2971	1
331	56	25	5	10	5600	260	0.000828	2033	1
332	46	33	1	10	4600	340	0.000398	2747	1
333	90	50	0	8	5760	340	0.000779	2406	1
334	49	32	0	10	4900	340	0.000424	1999	1
335	74	40	0	8	4736	340	0.000640	1867	1
336	25	35	1	10	2500	340	0.000216	2830	1
337	82	44	0	8	5248	340	0.000709	1811	1
338	49	32	5	10	4900	240	0.000851	1803	1
339	77	36	0	8	4928	340	0.000666	1666	1
340	76	44	1	10	7600	340	0.000657	1554	1
341	4	5	1	10	400	340	0.000035	1554	1
342	15	8	5	10	1500	140	0.000765	1971	1
343	51	25	1	10	5100	340	0.000441	1656	1
344	94	36	5	10	9400	320	0.000918	2102	1
345	5	5	0	24	2880	324	0.000048	2442	1
346	83	45	0	8	5312	340	0.000718	2301	1
347	70	45	1	10	7000	340	0.000606	1634	1
348	3	3	0	24	1728	324	0.000029	1272	1
349	31	16	1	10	3100	340	0.000268	3230	1
350	90	36	5	10	9000	320	0.000879	2599	1
351	80	36	1	10	8000	340	0.000692	2075	1
352	28	16	5	10	2800	180	0.000864	3921	1
353	13	11	0	20	5200	320	0.000127	2240	1
354	52	23	0	10	5200	340	0.000450	1698	1
355	69	33	5	10	6900	280	0.000880	2097	1
356	85	40	0	8	5440	340	0.000735	1663	1
357	84	40	0	8	5376	340	0.000727	2060	1
358	23	15	0	14	4508	336	0.000204	1811	1
359	16	15	1	10	1600	340	0.000138	2200	1
360	38	23	1	10	3800	340	0.000329	1539	1
361	87	32	1	10	8700	340	0.000753	1800	1
362	45	30	1	10	4500	340	0.000389	1741	1
363	8	7	0	24	4608	324	0.000076	1649	1
364	96	43	1	10	9600	340	0.000830	3592	1
365	66	45	1	10	6600	340	0.000571	2145	1
366	39	21	5	10	3900	220	0.000806	2735	1
367	3	3	1	10	300	340	0.000026	998	1
368	75	43	1	10	7500	340	0.000649	3731	1
369	33	34	1	10	3300	340	0.000285	1877	1
370	9	9	0	24	5184	324	0.000086	2239	1
371	27	14	5	10	2700	180	0.000833	1939	1
372	58	23	5	10	5800	260	0.000858	1539	1
373	16	8	5	10	1600	140	0.000816	2567	1
374	18	9	5	10	1800	140	0.000918	2007	1
375	48	17	0	10	4800	340	0.000415	4092	1
376	36	20	5	10	3600	200	0.000900	6881	1
377	71	50	0	8	4544	340	0.000614	3226	1
378	72	35	1	10	7200	340	0.000623	2186	1
379	27	20	0	14	5292	336	0.000239	2388	1
380	69	30	1	10	6900	340	0.000597	1696	1
381	28	24	1	10	2800	340	0.000242	2008	1
382	45	20	5	10	4500	220	0.000930	2028	1
383	55	22	5	10	5500	260	0.000814	1883	1
384	32	16	1	10	3200	340	0.000277	1765	1
385	65	28	5	10	6500	280	0.000829	2533	1
386	93	40	0	8	5952	340	0.000804	1798	1
387	97	55	0	8	6208	340	0.000839	1897	1
388	55	40	1	10	5500	340	0.000476	1665	1
389	11	9	0	22	5324	320	0.000107	1238	1
390	32	12	0	12	4608	336	0.000283	1463	1
391	12	8	0	20	4800	320	0.000117	1911	1
392	53	20	5	10	5300	240	0.000920	2689	1
393	45	23	0	10	4500	340	0.000389	1739	1
394	72	32	5	10	7200	280	0.000918	1629	1
395	66	30	5	10	6600	280	0.000842	1852	1
396	39	25	1	10	3900	340	0.000337	1915	1
397	43	25	0	10	4300	340	0.000372	1662	1
398	92	39	1	10	9200	340	0.000796	2151	1
399	34	20	5	10	3400	200	0.000850	1717	1
400	44	23	5	10	4400	220	0.000909	1618	1
401	14	14	0	18	4536	336	0.000124	2332	1
402	11	20	1	10	1100	340	0.000095	63414	1
403	82	32	5	10	8200	300	0.000911	1602	1
404	33	24	0	12	4752	336	0.000292	1938	1
405	91	40	0	8	5824	340	0.000787	2061	1
406	89	40	1	10	8900	340	0.000770	1884	1
407	96	40	5	10	9600	340	0.000830	1699	1
408	55	32	0	10	5500	340	0.000476	1747	1
409	62	22	0	8	3968	340	0.000536	1884	1
410	68	25	1	10	6800	340	0.000588	1841	1
411	79	36	1	10	7900	340	0.000683	3519	1
412	2	2	0	24	1152	324	0.000019	1052	1
413	86	40	0	8	5504	340	0.000744	2839	1
414	65	39	0	8	4160	340	0.000562	1677	1
415	30	20	0	12	4320	336	0.000266	1980	1
416	93	36	1	10	9300	340	0.000804	4187	1
417	98	43	5	10	9800	340	0.000848	1807	1
418	79	45	0	8	5056	340	0.000683	2430	1
419	43	23	1	10	4300	340	0.000372	1508	1
420	74	30	5	10	7400	300	0.000822	1846	1
421	2	2	5	10	200	100	0.000200	1128	1
422	92	40	0	8	5888	340	0.000796	3080	1
423	2	2	1	10	200	340	0.000017	1091	1
424	60	30	1	10	6000	340	0.000519	2707	1
425	9	11	1	10	900	340	0.000078	2966	1
426	37	23	0	12	5328	336	0.000328	2495	1
427	76	34	5	10	7600	300	0.000844	1818	1
428	60	30	0	10	6000	340	0.000519	1817	1
429	47	30	5	10	4700	240	0.000816	1918	1
430	83	35	5	10	8300	300	0.000922	1740	1
431	4	4	5	10	400	100	0.000400	1402	1
432	99	40	1	10	9900	340	0.000856	2122	1
433	22	19	1	10	2200	340	0.000190	2574	1
434	84	25	5	10	8400	320	0.000820	1758	1
435	47	26	0	10	4700	340	0.000407	6579	1
436	24	20	1	10	2400	340	0.000208	2107	1
437	18	20	0	16	4608	336	0.000159	4091	1
438	8	23	1	10	800	340	0.000069	18614	1
439	21	15	5	10	2100	160	0.000820	1922	1
440	94	35	1	10	9400	340	0.000813	2036	1
441	86	36	5	10	8600	320	0.000840	7541	1
442	62	36	5	10	6200	260	0.000917	57387	1
443	60	23	5	10	6000	260	0.000888	2905	1
444	92	40	5	10	9200	320	0.000898	3209	1
445	56	23	0	10	5600	340	0.000484	24926	1
446	38	15	0	12	5472	336	0.000337	1829	1
447	81	30	1	10	8100	340	0.000701	2964	1
448	88	40	5	10	8800	320	0.000859	1512	1
449	77	32	5	10	7700	300	0.000856	1377	1
450	63	36	0	8	4032	340	0.000545	1803	1
451	68	32	0	8	4352	340	0.000588	1834	1
452	49	25	1	10	4900	340	0.000424	1607	1
453	29	20	1	10	2900	340	0.000251	1469	1
454	18	15	1	10	1800	340	0.000156	1775	1
455	19	15	5	10	1900	140	0.000969	2195	1
456	41	25	1	10	4100	340	0.000355	2107	1
457	95	38	5	10	9500	340	0.000822	2739	1
458	100	48	0	8	6400	340	0.000865	1582	1
459	81	45	5	10	8100	300	0.000900	1996	1
460	72	42	0	8	4608	340	0.000623	1853	1
461	22	16	0	16	5632	336	0.000195	1592	1
462	4	4	0	24	2304	324	0.000038	1253	1
463	25	26	0	14	4900	336	0.000221	4864	1
464	21	21	1	10	2100	340	0.000182	2377	1
465	23	18	1	10	2300	340	0.000199	5106	1
466	17	13	0	18	5508	336	0.000151	2024	1
467	11	12	5	10	1100	120	0.000764	1371	1
468	1	1	5	10	100	100	0.000100	1145	1
469	73	34	5	10	7300	300	0.000811	2413	1
470	96	58	0	8	6144	340	0.000830	1916	1
471	10	10	5	10	1000	100	0.001000	2523	1
472	10	10	0	22	4840	320	0.000098	2528	1
473	13	13	1	10	1300	340	0.000112	1751	1
474	57	36	0	10	5700	340	0.000493	2607	1
475	54	35	0	10	5400	340	0.000467	1695	1
476	68	42	5	10	6800	280	0.000867	1607	1
477	29	23	5	10	2900	180	0.000895	1555	1
478	73	32	1	10	7300	340	0.000631	1384	1
479	98	36	1	10	9800	340	0.000848	2098	1
480	12	34	1	10	1200	340	0.000104	2014	1
481	7	6	5	10	700	100	0.000700	1327	1
482	42	23	5	10	4200	220	0.000868	2159	1
483	61	35	0	10	6100	340	0.000528	1522	1
484	35	32	1	10	3500	340	0.000303	3734	1
485	3	3	5	10	300	100	0.000300	1194	1
486	32	21	5	10	3200	200	0.000800	2526	1
487	24	19	5	10	2400	160	0.000937	2462	1
488	46	26	0	10	4600	340	0.000398	4030	1
489	59	35	0	10	5900	340	0.000510	1520	1
490	33	23	5	10	3300	200	0.000825	1509	1
491	23	22	5	10	2300	160	0.000898	1507	1
492	14	10	5	10	1400	120	0.000972	1766	1
493	29	19	0	14	5684	336	0.000257	1829	1
494	87	40	0	8	5568	340	0.000753	2105	1
495	10	9	1	10	1000	340	0.000087	1890	1
496	26	18	0	14	5096	336	0.000230	1918	1
497	17	20	1	10	1700	340	0.000147	7687	1
498	57	25	5	10	5700	260	0.000843	2339	1
499	95	32	1	10	9500	340	0.000822	1661	1
500	56	30	1	10	5600	340	0.000484	2283	1
501	70	30	5	10	7000	280	0.000893	2186	1
502	20	16	0	16	5120	336	0.000177	2481	1
503	87	42	5	10	8700	320	0.000850	3639	1
504	42	35	1	10	4200	340	0.000363	2065	1
505	88	43	0	8	5632	340	0.000761	1822	1
506	75	40	0	8	4800	340	0.000649	1799	1
507	22	23	5	10	2200	160	0.000859	2487	1
508	27	18	1	10	2700	340	0.000234	1956	1
509	17	13	5	10	1700	140	0.000867	1635	1
510	13	10	5	10	1300	120	0.000903	1688	1
511	58	33	0	10	5800	340	0.000502	2340	1
512	59	39	5	10	5900	260	0.000873	1502	1
513	67	43	0	8	4288	340	0.000580	1971	1
514	52	35	5	10	5200	240	0.000903	2653	1
515	6	6	1	10	600	340	0.000052	1278	1
516	95	40	0	8	6080	340	0.000822	2278	1
517	61	41	1	10	6100	340	0.000528	1724	1
518	28	20	0	14	5488	336	0.000248	1720	1
519	14	16	1	10	1400	340	0.000121	1873	1
520	74	45	1	10	7400	340	0.000640	2852	1
521	25	12	5	10	2500	160	0.000977	1660	1
522	70	36	0	8	4480	340	0.000606	1902	1
523	93	38	5	10	9300	320	0.000908	2963	1
524	8	8	5	10	800	100	0.000800	1731	1
525	5	6	5	10	500	100	0.000500	1296	1
526	51	23	0	10	5100	340	0.000441	1821	1
527	83	34	1	10	8300	340	0.000718	2183	1
528	31	20	0	12	4464	336	0.000275	1667	1
529	48	23	1	10	4800	340	0.000415	1571	1
530	53	35	0	10	5300	340	0.000458	3402	1
531	24	35	0	14	4704	336	0.000213	2615	1
532	78	42	0	8	4992	340	0.000675	2080	1
533	40	25	5	10	4000	220	0.000826	1718	1
534	82	35	1	10	8200	340	0.000709	1690	1
535	20	30	5	10	2000	160	0.000781	1565	1
536	54	30	1	10	5400	340	0.000467	2370	1
537	48	26	5	10	4800	240	0.000833	1942	1
538	12	10	5	10	1200	120	0.000833	1752	1
539	52	23	1	10	5200	340	0.000450	1938	1
540	97	33	5	10	9700	340	0.000839	1479	1
541	31	30	5	10	3100	180	0.000957	2155	1
542	91	38	5	10	9100	320	0.000889	1987	1
543	15	10	1	10	1500	340	0.000130	1672	1
544	53	16	1	10	5300	340	0.000458	1490	1
545	7	7	0	24	4032	324	0.000067	3196	1
546	44	30	0	10	4400	340	0.000381	3915	1
547	37	23	1	10	3700	340	0.000320	1729	1
548	78	32	1	10	7800	340	0.000675	1541	1
549	6	6	5	10	600	100	0.000600	1433	1
550	43	27	5	10	4300	220	0.000888	3976	1
551	5	NaN	1	10	500	340	0.000043	12352	1
552	41	23	0	12	5904	336	0.000363	2272	1
553	34	20	1	10	3400	340	0.000294	1997	1
554	89	32	5	10	8900	320	0.000869	1397	1
555	16	35	0	18	5184	336	0.000142	3894	1
556	26	12	5	10	2600	180	0.000802	1993	1
557	44	23	1	10	4400	340	0.000381	2098	1
558	1	1	1	10	100	340	0.000009	1317	1
559	50	20	5	10	5000	240	0.000868	1940	1
560	58	32	1	10	5800	340	0.000502	2010	1
561	40	18	0	12	5760	336	0.000354	1948	1
562	51	31	5	10	5100	240	0.000885	3569	1
563	36	21	1	10	3600	340	0.000311	2343	1
564	57	28	1	10	5700	340	0.000493	2342	1
565	62	24	1	10	6200	340	0.000536	2255	1
566	100	37	1	10	10000	340	0.000865	2969	1
567	66	34	0	8	4224	340	0.000571	2038	1
568	91	42	1	10	9100	340	0.000787	2073	1
569	84	37	1	10	8400	340	0.000727	1971	1
570	86	43	1	10	8600	340	0.000744	2493	1
571	64	45	1	10	6400	340	0.000554	1769	1
572	100	48	5	10	10000	340	0.000865	2012	1
573	1	1	0	24	576	324	0.000010	1396	1
574	42	20	0	10	4200	340	0.000363	2085	1
575	67	23	5	10	6700	280	0.000855	1455	1
576	34	19	0	12	4896	336	0.000301	1754	1
577	15	13	0	18	4860	336	0.000133	2364	1
578	35	19	0	12	5040	336	0.000310	1490	1
579	85	34	5	10	8500	320	0.000830	1680	1
580	50	31	0	10	5000	340	0.000433	1626	1
581	30	20	5	10	3000	180	0.000926	2239	1
582	65	24	1	10	6500	340	0.000562	2513	1
583	37	19	5	10	3700	200	0.000925	2264	1
584	19	19	0	16	4864	336	0.000168	3116	1
585	20	16	1	10	2000	340	0.000173	2599	1
586	88	37	1	10	8800	340	0.000761	2243	1
587	38	20	5	10	3800	200	0.000950	1797	1
588	64	40	5	10	6400	280	0.000816	2072	1
589	21	20	0	16	5376	336	0.000186	2119	1
590	94	46	0	8	6016	340	0.000813	2196	1
591	46	23	5	10	4600	240	0.000799	1551	1
592	71	26	1	10	7100	340	0.000614	1850	1
593	40	25	1	10	4000	340	0.000346	2216	1
594	78	27	5	10	7800	300	0.000867	2678	1
595	90	34	1	10	9000	340	0.000779	1734	1
596	85	38	1	10	8500	340	0.000735	2326	1
597	73	37	0	8	4672	340	0.000631	2094	1
598	50	29	1	10	5000	340	0.000433	2912	1
599	7	10	1	10	700	340	0.000061	2265	1
600	97	34	1	10	9700	340	0.000839	2460	1
1	58	32	1	10	5800	340	0.000502	4458	1
2	10	10	0	22	4840	320	0.000098	1968	1
3	85	36	5	10	8500	320	0.000830	1798	1
4	14	11	0	18	4536	336	0.000124	2291	1
5	30	22	1	10	3000	340	0.000260	2062	1
6	33	18	5	10	3300	200	0.000825	2591	1
7	42	23	1	10	4200	340	0.000363	2071	1
8	6	6	0	24	3456	324	0.000057	2803	1
9	85	45	0	8	5440	340	0.000735	2424	1
10	99	50	1	10	9900	340	0.000856	2415	1
11	8	7	0	24	4608	324	0.000076	1731	1
12	66	37	5	10	6600	280	0.000842	2083	1
13	3	3	0	24	1728	324	0.000029	1338	1
14	13	15	0	20	5200	320	0.000127	2532	1
15	31	30	1	10	3100	340	0.000268	2701	1
16	30	22	5	10	3000	180	0.000926	1716	1
17	55	35	0	10	5500	340	0.000476	1894	1
18	93	46	0	8	5952	340	0.000804	1860	1
19	20	11	5	10	2000	160	0.000781	2078	1
20	35	23	0	12	5040	336	0.000310	3581	1
21	91	40	5	10	9100	320	0.000889	2294	1
22	92	50	0	8	5888	340	0.000796	2131	1
23	42	30	0	10	4200	340	0.000363	1605	1
24	2	3	1	10	200	340	0.000017	1621	1
25	69	36	0	8	4416	340	0.000597	4129	1
26	71	42	1	10	7100	340	0.000614	1925	1
27	66	30	1	10	6600	340	0.000571	2965	1
28	50	23	5	10	5000	240	0.000868	2169	1
29	24	15	1	10	2400	340	0.000208	1899	1
30	19	22	1	10	1900	340	0.000164	10255	1
31	20	17	1	10	2000	340	0.000173	2631	1
32	72	38	0	8	4608	340	0.000623	2487	1
33	83	42	5	10	8300	300	0.000922	3195	1
34	8	6	5	10	800	100	0.000800	1504	1
35	25	11	5	10	2500	160	0.000977	1905	1
36	51	20	5	10	5100	240	0.000885	11636	1
37	11	12	1	10	1100	340	0.000095	3336	1
38	33	24	0	12	4752	336	0.000292	2251	1
39	57	41	1	10	5700	340	0.000493	3935	1
40	15	11	0	18	4860	336	0.000133	2133	1
41	55	26	5	10	5500	260	0.000814	2700	1
42	11	8	0	22	5324	320	0.000107	1756	1
43	67	35	0	8	4288	340	0.000580	2052	1
44	90	49	1	10	9000	340	0.000779	2256	1
45	28	13	0	14	5488	336	0.000248	1912	1
46	66	34	0	8	4224	340	0.000571	2199	1
47	79	42	1	10	7900	340	0.000683	1919	1
48	52	30	0	10	5200	340	0.000450	1809	1
49	35	23	5	10	3500	200	0.000875	3045	1
50	5	4	1	10	500	340	0.000043	1445	1
51	59	32	0	10	5900	340	0.000510	2497	1
52	18	16	1	10	1800	340	0.000156	2341	1
53	81	40	1	10	8100	340	0.000701	2485	1
54	28	26	5	10	2800	180	0.000864	2511	1
55	8	8	1	10	800	340	0.000069	3709	1
56	24	11	0	14	4704	336	0.000213	2170	1
57	58	22	5	10	5800	260	0.000858	2288	1
58	70	26	1	10	7000	340	0.000606	15544	1
59	31	32	0	12	4464	336	0.000275	5751	1
60	1	1	5	10	100	100	0.000100	1567	1
61	27	15	5	10	2700	180	0.000833	3796	1
62	94	56	0	8	6016	340	0.000813	2065	1
63	90	50	5	10	9000	320	0.000879	2127	1
64	36	32	1	10	3600	340	0.000311	2069	1
65	54	43	1	10	5400	340	0.000467	2259	1
66	82	45	5	10	8200	300	0.000911	1484	1
67	29	20	0	14	5684	336	0.000257	1624	1
68	29	30	1	10	2900	340	0.000251	2640	1
69	64	33	1	10	6400	340	0.000554	1928	1
70	93	40	5	10	9300	320	0.000908	2050	1
71	77	45	1	10	7700	340	0.000666	1936	1
72	98	55	0	8	6272	340	0.000848	2033	1
73	55	32	1	10	5500	340	0.000476	1766	1
74	10	9	5	10	1000	100	0.001000	2047	1
75	68	34	1	10	6800	340	0.000588	2480	1
76	40	18	5	10	4000	220	0.000826	2787	1
77	86	36	5	10	8600	320	0.000840	1828	1
78	61	35	0	10	6100	340	0.000528	3860	1
79	81	46	0	8	5184	340	0.000701	2285	1
80	32	23	0	12	4608	336	0.000283	3024	1
81	97	31	5	10	9700	340	0.000839	1842	1
82	96	40	0	8	6144	340	0.000830	1818	1
83	71	40	0	8	4544	340	0.000614	2274	1
84	49	32	5	10	4900	240	0.000851	3335	1
85	23	15	0	14	4508	336	0.000204	6521	1
86	2	2	5	10	200	100	0.000200	1233	1
87	3	3	1	10	300	340	0.000026	1095	1
88	45	30	1	10	4500	340	0.000389	3655	1
89	59	40	1	10	5900	340	0.000510	2391	1
90	70	50	0	8	4480	340	0.000606	1653	1
91	9	10	0	24	5184	324	0.000086	2365	1
92	62	36	0	8	3968	340	0.000536	2982	1
93	94	46	5	10	9400	320	0.000918	39245	1
94	31	16	5	10	3100	180	0.000957	2431	1
95	64	32	0	8	4096	340	0.000554	5461	1
96	22	16	5	10	2200	160	0.000859	2336	1
97	30	17	0	12	4320	336	0.000266	4321	1
98	26	13	5	10	2600	180	0.000802	2369	1
99	2	2	0	24	1152	324	0.000019	1506	1
100	16	10	5	10	1600	140	0.000816	1739	1
101	73	30	5	10	7300	300	0.000811	3351	1
102	61	30	1	10	6100	340	0.000528	2126	1
103	15	13	1	10	1500	340	0.000130	1448	1
104	40	21	0	12	5760	336	0.000354	1772	1
105	89	34	1	10	8900	340	0.000770	1961	1
106	80	40	5	10	8000	300	0.000889	1892	1
107	44	32	1	10	4400	340	0.000381	1676	1
108	50	33	1	10	5000	340	0.000433	1668	1
109	53	35	1	10	5300	340	0.000458	1909	1
110	57	30	5	10	5700	260	0.000843	2165	1
111	17	10	5	10	1700	140	0.000867	1515	1
112	38	16	0	12	5472	336	0.000337	1790	1
113	64	28	5	10	6400	280	0.000816	2144	1
114	19	13	0	16	4864	336	0.000168	1518	1
115	32	16	1	10	3200	340	0.000277	1711	1
116	77	36	0	8	4928	340	0.000666	1959	1
117	20	12	0	16	5120	336	0.000177	1695	1
118	5	5	0	24	2880	324	0.000048	1411	1
119	58	36	0	10	5800	340	0.000502	4669	1
120	92	46	1	10	9200	340	0.000796	1761	1
121	96	53	1	10	9600	340	0.000830	2001	1
122	54	36	5	10	5400	240	0.000937	1938	1
123	33	35	1	10	3300	340	0.000285	2106	1
124	72	38	5	10	7200	280	0.000918	2013	1
125	41	26	1	10	4100	340	0.000355	2211	1
126	12	9	5	10	1200	120	0.000833	2289	1
127	63	18	5	10	6300	260	0.000932	1838	1
128	60	30	0	10	6000	340	0.000519	1901	1
129	91	50	1	10	9100	340	0.000787	1735	1
130	44	30	5	10	4400	220	0.000909	1871	1
131	82	30	0	8	5248	340	0.000709	1550	1
132	53	30	0	10	5300	340	0.000458	1414	1
133	95	42	5	10	9500	340	0.000822	1567	1
134	70	38	5	10	7000	280	0.000893	3041	1
135	51	26	0	10	5100	340	0.000441	2257	1
136	45	25	0	10	4500	340	0.000389	2703	1
137	83	40	0	8	5312	340	0.000718	2124	1
138	44	36	0	10	4400	340	0.000381	2045	1
139	12	10	1	10	1200	340	0.000104	2466	1
140	100	40	1	10	10000	340	0.000865	1616	1
141	78	40	0	8	4992	340	0.000675	1487	1
142	11	8	5	10	1100	120	0.000764	2127	1
143	52	16	5	10	5200	240	0.000903	1630	1
144	56	25	1	10	5600	340	0.000484	1712	1
145	93	36	1	10	9300	340	0.000804	1421	1
146	78	38	1	10	7800	340	0.000675	1945	1
147	69	40	5	10	6900	280	0.000880	1720	1
148	3	3	5	10	300	100	0.000300	1004	1
149	39	23	0	12	5616	336	0.000345	1691	1
150	36	18	5	10	3600	200	0.000900	1842	1
151	24	20	5	10	2400	160	0.000937	3819	1
152	7	6	0	24	4032	324	0.000067	1376	1
153	13	16	1	10	1300	340	0.000112	2313	1
154	1	1	1	10	100	340	0.000009	1294	1
155	97	56	0	8	6208	340	0.000839	3921	1
156	18	12	0	16	4608	336	0.000159	1792	1
157	65	36	5	10	6500	280	0.000829	2458	1
158	49	35	1	10	4900	340	0.000424	1769	1
159	4	4	5	10	400	100	0.000400	1298	1
160	47	33	0	10	4700	340	0.000407	2459	1
161	100	50	0	8	6400	340	0.000865	2805	1
162	4	4	0	24	2304	324	0.000038	1319	1
163	47	28	1	10	4700	340	0.000407	1817	1
164	27	21	1	10	2700	340	0.000234	2890	1
165	60	25	5	10	6000	260	0.000888	1662	1
166	35	25	1	10	3500	340	0.000303	1572	1
167	18	10	5	10	1800	140	0.000918	1568	1
168	62	32	1	10	6200	340	0.000536	20746	1
169	88	48	0	8	5632	340	0.000761	5039	1
170	37	30	0	12	5328	336	0.000328	3706	1
171	56	32	5	10	5600	260	0.000828	1941	1
172	48	36	1	10	4800	340	0.000415	2417	1
173	26	16	0	14	5096	336	0.000230	2703	1
174	39	23	1	10	3900	340	0.000337	2884	1
175	68	43	0	8	4352	340	0.000588	2023	1
176	76	46	1	10	7600	340	0.000657	2140	1
177	100	48	5	10	10000	340	0.000865	2685	1
178	46	36	0	10	4600	340	0.000398	2373	1
179	16	12	0	18	5184	336	0.000142	4278	1
180	34	25	1	10	3400	340	0.000294	4199	1
181	41	25	5	10	4100	220	0.000847	2237	1
182	34	23	5	10	3400	200	0.000850	1939	1
183	71	33	5	10	7100	280	0.000906	1925	1
184	5	5	5	10	500	100	0.000500	1241	1
185	98	58	1	10	9800	340	0.000848	2446	1
186	57	50	0	10	5700	340	0.000493	1833	1
187	47	36	5	10	4700	240	0.000816	1887	1
188	68	40	5	10	6800	280	0.000867	2869	1
189	84	50	0	8	5376	340	0.000727	2158	1
190	53	40	5	10	5300	240	0.000920	1842	1
191	99	60	0	8	6336	340	0.000856	1861	1
192	21	15	0	16	5376	336	0.000186	1867	1
193	92	45	5	10	9200	320	0.000898	204988	1
194	87	55	1	10	8700	340	0.000753	2679	1
195	6	6	1	10	600	340	0.000052	1168	1
196	86	42	1	10	8600	340	0.000744	1950	1
197	40	31	1	10	4000	340	0.000346	1758	1
198	48	26	5	10	4800	240	0.000833	1777	1
199	99	43	5	10	9900	340	0.000856	1835	1
200	14	13	1	10	1400	340	0.000121	2305	1
201	69	35	1	10	6900	340	0.000597	2181	1
202	43	25	0	10	4300	340	0.000372	2532	1
203	48	24	0	10	4800	340	0.000415	2257	1
204	83	32	1	10	8300	340	0.000718	1669	1
205	16	16	1	10	1600	340	0.000138	1627	1
206	1	1	0	24	576	324	0.000010	1750	1
207	34	20	0	12	4896	336	0.000301	3740	1
208	95	33	0	8	6080	340	0.000822	2123	1
209	85	36	1	10	8500	340	0.000735	1517	1
210	74	35	5	10	7400	300	0.000822	3144	1
211	60	34	1	10	6000	340	0.000519	2651	1
212	88	40	5	10	8800	320	0.000859	4947	1
213	46	25	5	10	4600	240	0.000799	2109	1
214	86	32	0	8	5504	340	0.000744	1793	1
215	21	16	5	10	2100	160	0.000820	2036	1
216	49	22	0	10	4900	340	0.000424	11966	1
217	42	32	5	10	4200	220	0.000868	75910	1
218	51	40	1	10	5100	340	0.000441	3620	1
219	89	36	0	8	5696	340	0.000770	2926	1
220	45	26	5	10	4500	220	0.000930	20464	1
221	80	40	0	8	5120	340	0.000692	2081	1
222	74	3	1	10	7400	340	0.000640	10822	1
223	98	45	5	10	9800	340	0.000848	2425	1
224	73	32	0	8	4672	340	0.000631	1983	1
225	23	11	5	10	2300	160	0.000898	2543	1
226	27	16	0	14	5292	336	0.000239	2321	1
227	62	22	5	10	6200	260	0.000917	2569	1
228	65	36	0	8	4160	340	0.000562	1585	1
229	59	30	5	10	5900	260	0.000873	1621	1
230	87	46	0	8	5568	340	0.000753	1636	1
231	23	20	1	10	2300	340	0.000199	2267	1
232	67	22	5	10	6700	280	0.000855	2315	1
233	63	33	1	10	6300	340	0.000545	2157	1
234	88	44	1	10	8800	340	0.000761	1890	1
235	41	19	0	12	5904	336	0.000363	2467	1
236	84	36	5	10	8400	320	0.000820	2115	1
237	7	6	5	10	700	100	0.000700	1397	1
238	94	47	1	10	9400	340	0.000813	2293	1
239	56	33	0	10	5600	340	0.000484	38886	1
240	96	42	5	10	9600	340	0.000830	3592	1
241	25	19	0	14	4900	336	0.000221	5398	1
242	75	42	1	10	7500	340	0.000649	3303	1
243	17	32	1	10	1700	340	0.000147	3421	1
244	22	15	1	10	2200	340	0.000190	2264	1
245	46	26	1	10	4600	340	0.000398	4734	1
246	79	38	5	10	7900	300	0.000878	2420	1
247	9	10	1	10	900	340	0.000078	2260	1
248	28	14	1	10	2800	340	0.000242	2764	1
249	77	34	5	10	7700	300	0.000856	2945	1
250	52	33	1	10	5200	340	0.000450	2204	1
251	75	32	5	10	7500	300	0.000833	2427	1
252	32	16	5	10	3200	200	0.000800	1546	1
253	12	10	0	20	4800	320	0.000117	1965	1
254	76	36	0	8	4864	340	0.000657	2325	1
255	84	40	1	10	8400	340	0.000727	3269	1
256	38	32	1	10	3800	340	0.000329	2041	1
257	15	11	5	10	1500	140	0.000765	1999	1
258	82	43	1	10	8200	340	0.000709	2425	1
259	75	42	0	8	4800	340	0.000649	1782	1
260	50	39	0	10	5000	340	0.000433	1935	1
261	14	10	5	10	1400	120	0.000972	2569	1
262	95	50	1	10	9500	340	0.000822	1887	1
263	78	43	5	10	7800	300	0.000867	2060	1
264	6	5	5	10	600	100	0.000600	1216	1
265	79	42	0	8	5056	340	0.000683	1896	1
266	73	45	1	10	7300	340	0.000631	1928	1
267	67	45	1	10	6700	340	0.000580	2115	1
268	36	30	0	12	5184	336	0.000319	2113	1
269	80	50	1	10	8000	340	0.000692	1905	1
270	25	30	1	10	2500	340	0.000216	1643	1
271	91	45	0	8	5824	340	0.000787	3582	1
272	43	16	1	10	4300	340	0.000372	2270	1
273	26	16	1	10	2600	340	0.000225	2051	1
274	22	13	0	16	5632	336	0.000195	1909	1
275	17	14	0	18	5508	336	0.000151	3547	1
276	39	18	5	10	3900	220	0.000806	5007	1
277	19	15	5	10	1900	140	0.000969	2651	1
278	37	20	5	10	3700	200	0.000925	2089	1
279	90	55	0	8	5760	340	0.000779	2620	1
280	76	45	5	10	7600	300	0.000844	2988	1
281	4	4	1	10	400	340	0.000035	1465	1
282	37	19	1	10	3700	340	0.000320	2387	1
283	43	23	5	10	4300	220	0.000888	1787	1
284	65	32	1	10	6500	340	0.000562	2648	1
285	21	23	1	10	2100	340	0.000182	2439	1
286	10	9	1	10	1000	340	0.000087	2065	1
287	63	32	0	8	4032	340	0.000545	2886	1
288	38	23	5	10	3800	200	0.000950	2441	1
289	13	16	5	10	1300	120	0.000903	2187	1
290	72	45	1	10	7200	340	0.000623	2061	1
291	61	35	5	10	6100	260	0.000902	3714	1
292	29	23	5	10	2900	180	0.000895	3025	1
293	9	6	5	10	900	100	0.000900	2287	1
294	54	18	0	10	5400	340	0.000467	2524	1
295	97	60	1	10	9700	340	0.000839	2356	1
296	74	36	0	8	4736	340	0.000640	5563	1
297	81	33	5	10	8100	300	0.000900	4791	1
298	7	6	1	10	700	340	0.000061	1831	1
299	87	35	5	10	8700	320	0.000850	4908	1
300	89	35	5	10	8900	320	0.000869	12570	1
301	16	12	0	18	5184	336	0.000142	4291	1
302	33	20	5	10	3300	200	0.000825	1768	1
303	30	23	0	12	4320	336	0.000266	1136	1
304	61	32	0	10	6100	340	0.000528	1338	1
305	43	35	1	10	4300	340	0.000372	1631	1
306	37	35	1	10	3700	340	0.000320	1603	1
307	78	40	5	10	7800	300	0.000867	1539	1
308	73	40	5	10	7300	300	0.000811	1867	1
309	98	50	0	8	6272	340	0.000848	1618	1
310	19	16	5	10	1900	140	0.000969	1993	1
311	58	30	5	10	5800	260	0.000858	1429	1
312	41	30	5	10	4100	220	0.000847	3186	1
313	66	50	0	8	4224	340	0.000571	1778	1
314	34	26	1	10	3400	340	0.000294	2356	1
315	38	25	1	10	3800	340	0.000329	1766	1
316	24	16	0	14	4704	336	0.000213	1565	1
317	54	29	0	10	5400	340	0.000467	4582	1
318	1	1	5	10	100	100	0.000100	1602	1
319	15	11	5	10	1500	140	0.000765	2351	1
320	75	36	0	8	4800	340	0.000649	13446	1
321	87	56	1	10	8700	340	0.000753	1839	1
322	42	25	5	10	4200	220	0.000868	2194	1
323	14	16	1	10	1400	340	0.000121	3163	1
324	61	25	5	10	6100	260	0.000902	2921	1
325	51	36	0	10	5100	340	0.000441	3323	1
326	95	50	1	10	9500	340	0.000822	1831	1
327	11	9	0	22	5324	320	0.000107	2183	1
328	24	14	1	10	2400	340	0.000208	2042	1
329	93	40	0	8	5952	340	0.000804	2619	1
330	12	9	0	20	4800	320	0.000117	1756	1
331	74	40	0	8	4736	340	0.000640	2387	1
332	3	3	1	10	300	340	0.000026	1022	1
333	15	11	0	18	4860	336	0.000133	1608	1
334	29	18	5	10	2900	180	0.000895	2108	1
335	97	40	1	10	9700	340	0.000839	2151	1
336	35	25	5	10	3500	200	0.000875	2155	1
337	58	38	1	10	5800	340	0.000502	2311	1
338	58	45	0	10	5800	340	0.000502	1901	1
339	78	50	0	8	4992	340	0.000675	1548	1
340	70	43	5	10	7000	280	0.000893	1853	1
341	44	30	5	10	4400	220	0.000909	1881	1
342	79	50	0	8	5056	340	0.000683	1658	1
343	6	6	0	24	3456	324	0.000057	1252	1
344	72	35	0	8	4608	340	0.000623	1852	1
345	11	8	5	10	1100	120	0.000764	1716	1
346	62	38	1	10	6200	340	0.000536	2476	1
347	39	28	0	12	5616	336	0.000345	2697	1
348	96	48	0	8	6144	340	0.000830	2037	1
349	81	50	5	10	8100	300	0.000900	1753	1
350	39	35	1	10	3900	340	0.000337	1935	1
351	74	30	1	10	7400	340	0.000640	1967	1
352	68	33	5	10	6800	280	0.000867	2259	1
353	27	30	0	14	5292	336	0.000239	1391	1
354	70	35	1	10	7000	340	0.000606	1641	1
355	25	16	1	10	2500	340	0.000216	1643	1
356	94	40	1	10	9400	340	0.000813	1692	1
357	19	23	0	16	4864	336	0.000168	1854	1
358	46	25	1	10	4600	340	0.000398	2180	1
359	50	32	1	10	5000	340	0.000433	2221	1
360	35	26	1	10	3500	340	0.000303	1614	1
361	7	8	1	10	700	340	0.000061	1673	1
362	72	25	5	10	7200	280	0.000918	2175	1
363	80	36	5	10	8000	300	0.000889	1763	1
364	93	40	5	10	9300	320	0.000908	2033	1
365	71	40	0	8	4544	340	0.000614	2537	1
366	65	33	5	10	6500	280	0.000829	2305	1
367	18	12	1	10	1800	340	0.000156	2053	1
368	17	16	0	18	5508	336	0.000151	1811	1
369	52	23	5	10	5200	240	0.000903	1751	1
370	37	32	0	12	5328	336	0.000328	1718	1
371	94	40	5	10	9400	320	0.000918	1731	1
372	42	32	1	10	4200	340	0.000363	1825	1
373	92	46	5	10	9200	320	0.000898	1582	1
374	85	40	5	10	8500	320	0.000830	1466	1
375	56	36	0	10	5600	340	0.000484	1346	1
376	48	32	0	10	4800	340	0.000415	1403	1
377	17	10	5	10	1700	140	0.000867	2128	1
378	93	36	1	10	9300	340	0.000804	1561	1
379	68	40	0	8	4352	340	0.000588	1874	1
380	41	30	1	10	4100	340	0.000355	1634	1
381	86	45	1	10	8600	340	0.000744	1738	1
382	45	23	5	10	4500	220	0.000930	1632	1
383	88	45	1	10	8800	340	0.000761	3805	1
384	44	26	1	10	4400	340	0.000381	5151	1
385	8	7	1	10	800	340	0.000069	2993	1
386	85	36	0	8	5440	340	0.000735	1868	1
387	31	19	5	10	3100	180	0.000957	3017	1
388	13	8	0	20	5200	320	0.000127	1811	1
389	1	1	1	10	100	340	0.000009	1439	1
390	3	3	5	10	300	100	0.000300	1037	1
391	30	20	1	10	3000	340	0.000260	1797	1
392	71	30	1	10	7100	340	0.000614	1975	1
393	63	35	1	10	6300	340	0.000545	1563	1
394	16	15	1	10	1600	340	0.000138	1631	1
395	87	36	0	8	5568	340	0.000753	1576	1
396	59	30	5	10	5900	260	0.000873	1461	1
397	27	19	5	10	2700	180	0.000833	2627	1
398	68	35	1	10	6800	340	0.000588	1715	1
399	94	45	0	8	6016	340	0.000813	1680	1
400	65	30	0	8	4160	340	0.000562	1625	1
401	84	30	5	10	8400	320	0.000820	2000	1
402	83	33	0	8	5312	340	0.000718	1581	1
403	53	26	5	10	5300	240	0.000920	1478	1
404	57	32	1	10	5700	340	0.000493	1414	1
405	12	10	1	10	1200	340	0.000104	1582	1
406	81	23	0	8	5184	340	0.000701	1558	1
407	64	34	1	10	6400	340	0.000554	2036	1
408	45	32	0	10	4500	340	0.000389	2038	1
409	29	23	1	10	2900	340	0.000251	2985	1
410	34	17	5	10	3400	200	0.000850	4110	1
411	77	34	5	10	7700	300	0.000856	5445	1
412	20	10	1	10	2000	340	0.000173	1680	1
413	53	27	1	10	5300	340	0.000458	2322	1
414	97	38	5	10	9700	340	0.000839	2693	1
415	32	20	5	10	3200	200	0.000800	1601	1
416	73	45	0	8	4672	340	0.000631	2290	1
417	12	10	5	10	1200	120	0.000833	2111	1
418	69	42	5	10	6900	280	0.000880	3444	1
419	22	23	1	10	2200	340	0.000190	2686	1
420	20	16	5	10	2000	160	0.000781	1774	1
421	62	32	5	10	6200	260	0.000917	5750	1
422	69	46	0	8	4416	340	0.000597	1611	1
423	57	38	5	10	5700	260	0.000843	1887	1
424	50	35	5	10	5000	240	0.000868	1398	1
425	11	8	1	10	1100	340	0.000095	1939	1
426	92	49	1	10	9200	340	0.000796	2507	1
427	91	56	1	10	9100	340	0.000787	3036	1
428	47	38	0	10	4700	340	0.000407	2582	1
429	44	32	0	10	4400	340	0.000381	3247	1
430	49	23	1	10	4900	340	0.000424	4174	1
431	21	14	5	10	2100	160	0.000820	2141	1
432	64	25	5	10	6400	280	0.000816	2553	1
433	98	34	1	10	9800	340	0.000848	10613	1
434	100	56	0	8	6400	340	0.000865	2359	1
435	80	24	1	10	8000	340	0.000692	3145	1
436	23	23	1	10	2300	340	0.000199	13127	1
437	27	16	1	10	2700	340	0.000234	2109	1
438	29	20	0	14	5684	336	0.000257	1919	1
439	33	20	0	12	4752	336	0.000292	2258	1
440	55	32	0	10	5500	340	0.000476	2152	1
441	26	16	5	10	2600	180	0.000802	1729	1
442	54	25	5	10	5400	240	0.000937	2100	1
443	33	26	1	10	3300	340	0.000285	1841	1
444	82	40	5	10	8200	300	0.000911	2640	1
445	39	25	5	10	3900	220	0.000806	1971	1
446	84	49	0	8	5376	340	0.000727	2367	1
447	40	20	5	10	4000	220	0.000826	1732	1
448	90	50	1	10	9000	340	0.000779	2134	1
449	53	40	0	10	5300	340	0.000458	1792	1
450	86	56	0	8	5504	340	0.000744	1755	1
451	91	46	0	8	5824	340	0.000787	2189	1
452	77	37	1	10	7700	340	0.000666	3330	1
453	42	22	0	10	4200	340	0.000363	5086	1
454	8	6	5	10	800	100	0.000800	1442	1
455	47	21	5	10	4700	240	0.000816	6281	1
456	6	6	1	10	600	340	0.000052	1373	1
457	76	35	0	8	4864	340	0.000657	1941	1
458	98	39	5	10	9800	340	0.000848	5577	1
459	40	25	0	12	5760	336	0.000354	2449	1
460	40	23	1	10	4000	340	0.000346	2049	1
461	48	26	1	10	4800	340	0.000415	1848	1
462	35	20	0	12	5040	336	0.000310	1628	1
463	63	20	0	8	4032	340	0.000545	3642	1
464	70	32	0	8	4480	340	0.000606	4480	1
465	55	30	1	10	5500	340	0.000476	1752	1
466	28	21	5	10	2800	180	0.000864	1698	1
467	13	9	5	10	1300	120	0.000903	2489	1
468	5	4	5	10	500	100	0.000500	2172	1
469	61	20	1	10	6100	340	0.000528	2493	1
470	24	12	5	10	2400	160	0.000937	2420	1
471	63	35	5	10	6300	260	0.000932	152752	1
472	9	8	5	10	900	100	0.000900	1573	1
473	43	25	0	10	4300	340	0.000372	3577	1
474	86	36	5	10	8600	320	0.000840	1765	1
475	52	37	0	10	5200	340	0.000450	3342	1
476	51	21	5	10	5100	240	0.000885	1775	1
477	87	46	5	10	8700	320	0.000850	1801	1
478	67	32	1	10	6700	340	0.000580	3677	1
479	4	4	1	10	400	340	0.000035	1337	1
480	3	3	0	24	1728	324	0.000029	1093	1
481	76	36	5	10	7600	300	0.000844	2200	1
482	26	14	1	10	2600	340	0.000225	2268	1
483	9	10	0	24	5184	324	0.000086	2199	1
484	38	16	5	10	3800	200	0.000950	1631	1
485	80	49	0	8	5120	340	0.000692	2096	1
486	5	5	0	24	2880	324	0.000048	1346	1
487	10	8	0	22	4840	320	0.000098	1582	1
488	2	2	5	10	200	100	0.000200	1188	1
489	51	31	1	10	5100	340	0.000441	2304	1
490	34	25	0	12	4896	336	0.000301	1708	1
491	16	13	5	10	1600	140	0.000816	2210	1
492	100	53	1	10	10000	340	0.000865	1932	1
493	56	45	5	10	5600	260	0.000828	1642	1
494	82	58	0	8	5248	340	0.000709	1571	1
495	57	42	0	10	5700	340	0.000493	1654	1
496	36	23	5	10	3600	200	0.000900	1421	1
497	21	18	0	16	5376	336	0.000186	1862	1
498	28	20	1	10	2800	340	0.000242	1513	1
499	36	13	0	12	5184	336	0.000319	1533	1
500	17	16	1	10	1700	340	0.000147	1529	1
501	5	5	1	10	500	340	0.000043	1452	1
502	99	56	1	10	9900	340	0.000856	1711	1
503	26	20	0	14	5096	336	0.000230	1704	1
504	23	16	0	14	4508	336	0.000204	1690	1
505	88	46	0	8	5632	340	0.000761	1664	1
506	88	48	5	10	8800	320	0.000859	3058	1
507	75	56	1	10	7500	340	0.000649	2711	1
508	32	26	1	10	3200	340	0.000277	21680	1
509	96	50	5	10	9600	340	0.000830	1636	1
510	47	32	1	10	4700	340	0.000407	1902	1
511	76	45	1	10	7600	340	0.000657	2222	1
512	73	50	1	10	7300	340	0.000631	2369	1
513	9	10	1	10	900	340	0.000078	2359	1
514	25	11	0	14	4900	336	0.000221	1530	1
515	77	43	0	8	4928	340	0.000666	2159	1
516	41	20	0	12	5904	336	0.000363	1523	1
517	4	4	5	10	400	100	0.000400	1459	1
518	14	11	0	18	4536	336	0.000124	2140	1
519	32	16	0	12	4608	336	0.000283	1860	1
520	38	23	0	12	5472	336	0.000337	1635	1
521	6	6	5	10	600	100	0.000600	1374	1
522	23	14	5	10	2300	160	0.000898	1936	1
523	18	15	5	10	1800	140	0.000918	1532	1
524	99	56	5	10	9900	340	0.000856	2284	1
525	59	45	0	10	5900	340	0.000510	1405	1
526	19	25	1	10	1900	340	0.000164	1737	1
527	52	32	1	10	5200	340	0.000450	1504	1
528	45	36	1	10	4500	340	0.000389	2016	1
529	66	42	5	10	6600	280	0.000842	3275	1
530	14	12	5	10	1400	120	0.000972	1632	1
531	79	42	1	10	7900	340	0.000683	3457	1
532	100	49	5	10	10000	340	0.000865	2466	1
533	60	36	1	10	6000	340	0.000519	1651	1
534	75	45	5	10	7500	300	0.000833	1936	1
535	65	50	1	10	6500	340	0.000562	2146	1
536	83	50	1	10	8300	340	0.000718	1541	1
537	22	16	0	16	5632	336	0.000195	1620	1
538	31	25	0	12	4464	336	0.000275	1593	1
539	7	7	0	24	4032	324	0.000067	1664	1
540	59	31	1	10	5900	340	0.000510	1957	1
541	67	35	5	10	6700	280	0.000855	1540	1
542	79	36	5	10	7900	300	0.000878	1354	1
543	48	30	5	10	4800	240	0.000833	1540	1
544	25	20	5	10	2500	160	0.000977	2136	1
545	84	35	1	10	8400	340	0.000727	1694	1
546	28	20	0	14	5488	336	0.000248	1432	1
547	8	6	0	24	4608	324	0.000076	1312	1
548	71	36	5	10	7100	280	0.000906	1954	1
549	91	60	5	10	9100	320	0.000889	2983	1
550	50	50	0	10	5000	340	0.000433	1598	1
551	10	9	1	10	1000	340	0.000087	1870	1
552	37	16	5	10	3700	200	0.000925	1823	1
553	46	26	5	10	4600	240	0.000799	1953	1
554	92	48	0	8	5888	340	0.000796	3891	1
555	2	2	1	10	200	340	0.000017	1196	1
556	22	18	5	10	2200	160	0.000859	2485	1
557	89	50	0	8	5696	340	0.000770	3161	1
558	46	36	0	10	4600	340	0.000398	2147	1
559	97	56	0	8	6208	340	0.000839	2158	1
560	64	48	0	8	4096	340	0.000554	1552	1
561	54	39	1	10	5400	340	0.000467	1662	1
562	85	49	1	10	8500	340	0.000735	1915	1
563	66	45	1	10	6600	340	0.000571	1568	1
564	90	56	0	8	5760	340	0.000779	1882	1
565	67	50	0	8	4288	340	0.000580	1469	1
566	90	42	5	10	9000	320	0.000879	1824	1
567	21	26	1	10	2100	340	0.000182	1927	1
568	15	21	1	10	1500	340	0.000130	1795	1
569	78	35	1	10	7800	340	0.000675	1648	1
570	1	1	0	24	576	324	0.000010	1128	1
571	43	34	5	10	4300	220	0.000888	3262	1
572	62	46	0	8	3968	340	0.000536	1728	1
573	69	49	1	10	6900	340	0.000597	2363	1
574	72	46	1	10	7200	340	0.000623	2266	1
575	89	47	5	10	8900	320	0.000869	2958	1
576	7	6	5	10	700	100	0.000700	1464	1
577	13	15	1	10	1300	340	0.000112	1705	1
578	60	30	5	10	6000	260	0.000888	2710	1
579	96	42	1	10	9600	340	0.000830	3104	1
580	89	56	1	10	8900	340	0.000770	2331	1
581	99	60	0	8	6336	340	0.000856	2008	1
582	81	50	1	10	8100	340	0.000701	1427	1
583	4	4	0	24	2304	324	0.000038	1543	1
584	36	14	1	10	3600	340	0.000311	17374	1
585	18	10	0	16	4608	336	0.000159	1665	1
586	20	16	0	16	5120	336	0.000177	2439	1
587	60	40	0	10	6000	340	0.000519	2569	1
588	31	23	1	10	3100	340	0.000268	2219	1
589	83	40	5	10	8300	300	0.000922	1825	1
590	56	37	1	10	5600	340	0.000484	2134	1
591	49	35	5	10	4900	240	0.000851	1604	1
592	49	40	0	10	4900	340	0.000424	1818	1
593	55	40	5	10	5500	260	0.000814	2241	1
594	30	25	5	10	3000	180	0.000926	1773	1
595	74	50	5	10	7400	300	0.000822	1761	1
596	95	53	5	10	9500	340	0.000822	1575	1
597	82	56	1	10	8200	340	0.000709	1532	1
598	95	62	0	8	6080	340	0.000822	1769	1
599	10	8	5	10	1000	100	0.001000	1734	1
600	2	2	0	24	1152	324	0.000019	1232	1
1	50	36	1	10	5000	340	0.000433	3379	1
2	35	20	1	10	3500	340	0.000303	1632	1
3	65	40	1	10	6500	340	0.000562	2277	1
4	61	40	1	10	6100	340	0.000528	3400	1
5	14	8	1	10	1400	340	0.000121	2571	1
6	30	15	5	10	3000	180	0.000926	2257	1
7	90	62	1	10	9000	340	0.000779	2560	1
8	21	10	1	10	2100	340	0.000182	2151	1
9	64	40	1	10	6400	340	0.000554	2684	1
10	15	30	1	10	1500	340	0.000130	5507	1
11	89	42	5	10	8900	320	0.000869	2858	1
12	76	65	0	8	4864	340	0.000657	2642	1
13	99	55	0	8	6336	340	0.000856	3293	1
14	30	13	1	10	3000	340	0.000260	2013	1
15	62	26	0	8	3968	340	0.000536	2931	1
16	2	2	0	24	1152	324	0.000019	1213	1
17	20	11	5	10	2000	160	0.000781	2295	1
18	78	45	5	10	7800	300	0.000867	1847	1
19	49	35	1	10	4900	340	0.000424	1547	1
20	48	50	1	10	4800	340	0.000415	1552	1
21	33	20	5	10	3300	200	0.000825	2104	1
22	82	58	0	8	5248	340	0.000709	3628	1
23	94	60	1	10	9400	340	0.000813	2686	1
24	86	55	1	10	8600	340	0.000744	2158	1
25	31	32	1	10	3100	340	0.000268	2485	1
26	40	26	0	12	5760	336	0.000354	2520	1
27	93	55	1	10	9300	340	0.000804	2208	1
28	70	42	1	10	7000	340	0.000606	4706	1
29	66	32	5	10	6600	280	0.000842	1785	1
30	55	33	1	10	5500	340	0.000476	2222	1
31	13	8	5	10	1300	120	0.000903	2099	1
32	80	42	1	10	8000	340	0.000692	15843	1
33	36	20	5	10	3600	200	0.000900	2726	1
34	50	33	0	10	5000	340	0.000433	3380	1
35	72	36	5	10	7200	280	0.000918	2254	1
36	10	8	5	10	1000	100	0.001000	1941	1
37	38	20	0	12	5472	336	0.000337	3239	1
38	53	25	1	10	5300	340	0.000458	2076	1
39	76	40	5	10	7600	300	0.000844	2028	1
40	84	60	1	10	8400	340	0.000727	1940	1
41	28	20	5	10	2800	180	0.000864	1392	1
42	97	50	1	10	9700	340	0.000839	1943	1
43	39	30	0	12	5616	336	0.000345	2362	1
44	18	12	5	10	1800	140	0.000918	4208	1
45	31	25	0	12	4464	336	0.000275	2434	1
46	72	40	1	10	7200	340	0.000623	3043	1
47	61	32	5	10	6100	260	0.000902	1618	1
48	79	60	0	8	5056	340	0.000683	3170	1
49	27	30	0	14	5292	336	0.000239	2887	1
50	16	13	1	10	1600	340	0.000138	1941	1
51	73	42	0	8	4672	340	0.000631	2497	1
52	75	56	0	8	4800	340	0.000649	3239	1
53	94	56	5	10	9400	320	0.000918	2651	1
54	90	28	0	8	5760	340	0.000779	4013	1
55	91	36	0	8	5824	340	0.000787	3138	1
56	51	30	0	10	5100	340	0.000441	1838	1
57	85	40	5	10	8500	320	0.000830	1721	1
58	81	56	0	8	5184	340	0.000701	1886	1
59	81	50	1	10	8100	340	0.000701	1460	1
60	5	6	5	10	500	100	0.000500	1207	1
61	99	45	5	10	9900	340	0.000856	1954	1
62	96	36	1	10	9600	340	0.000830	3652	1
63	86	42	5	10	8600	320	0.000840	1871	1
64	75	55	5	10	7500	300	0.000833	2230	1
65	32	23	5	10	3200	200	0.000800	1933	1
66	96	65	0	8	6144	340	0.000830	1688	1
67	77	45	5	10	7700	300	0.000856	1716	1
68	50	25	5	10	5000	240	0.000868	1593	1
69	37	22	1	10	3700	340	0.000320	3153	1
70	12	10	0	20	4800	320	0.000117	1936	1
71	79	45	5	10	7900	300	0.000878	2408	1
72	56	44	5	10	5600	260	0.000828	1950	1
73	67	45	0	8	4288	340	0.000580	1918	1
74	65	38	5	10	6500	280	0.000829	2210	1
75	74	54	0	8	4736	340	0.000640	2342	1
76	4	4	1	10	400	340	0.000035	1485	1
77	3	3	1	10	300	340	0.000026	1209	1
78	37	25	0	12	5328	336	0.000328	3866	1
79	96	58	5	10	9600	340	0.000830	2559	1
80	7	6	0	24	4032	324	0.000067	1524	1
81	87	54	0	8	5568	340	0.000753	2548	1
82	98	67	1	10	9800	340	0.000848	3314	1
83	59	43	5	10	5900	260	0.000873	2929	1
84	29	25	1	10	2900	340	0.000251	3459	1
85	20	23	1	10	2000	340	0.000173	4710	1
86	57	43	1	10	5700	340	0.000493	2312	1
87	46	42	1	10	4600	340	0.000398	4300	1
88	8	6	5	10	800	100	0.000800	1582	1
89	61	13	0	10	6100	340	0.000528	2948	1
90	72	46	0	8	4608	340	0.000623	3192	1
91	25	26	1	10	2500	340	0.000216	2144	1
92	60	30	5	10	6000	260	0.000888	1733	1
93	55	30	5	10	5500	260	0.000814	2121	1
94	46	36	0	10	4600	340	0.000398	2414	1
95	47	30	1	10	4700	340	0.000407	2041	1
96	13	10	1	10	1300	340	0.000112	1764	1
97	35	20	0	12	5040	336	0.000310	1462	1
98	32	21	1	10	3200	340	0.000277	1586	1
99	80	40	0	8	5120	340	0.000692	2743	1
100	100	60	0	8	6400	340	0.000865	1572	1
101	11	10	0	22	5324	320	0.000107	2420	1
102	7	10	1	10	700	340	0.000061	2203	1
103	11	10	1	10	1100	340	0.000095	1675	1
104	54	32	0	10	5400	340	0.000467	1805	1
105	28	20	0	14	5488	336	0.000248	2228	1
106	21	16	5	10	2100	160	0.000820	1768	1
107	73	36	1	10	7300	340	0.000631	1807	1
108	39	38	1	10	3900	340	0.000337	2379	1
109	24	33	0	14	4704	336	0.000213	2656	1
110	47	25	5	10	4700	240	0.000816	1625	1
111	58	42	0	10	5800	340	0.000502	1666	1
112	5	5	0	24	2880	324	0.000048	3131	1
113	88	58	1	10	8800	340	0.000761	2004	1
114	42	42	0	10	4200	340	0.000363	2058	1
115	54	46	1	10	5400	340	0.000467	2354	1
116	62	36	1	10	6200	340	0.000536	1631	1
117	41	35	1	10	4100	340	0.000355	3535	1
118	52	42	5	10	5200	240	0.000903	3025	1
119	49	36	5	10	4900	240	0.000851	6349	1
120	23	25	5	10	2300	160	0.000898	2390	1
121	5	25	1	10	500	340	0.000043	10573	1
122	66	45	1	10	6600	340	0.000571	1950	1
123	17	55	1	10	1700	340	0.000147	6250	1
124	29	15	5	10	2900	180	0.000895	1844	1
125	48	19	5	10	4800	240	0.000833	2247	1
126	44	32	5	10	4400	220	0.000909	4509	1
127	82	50	5	10	8200	300	0.000911	5291	1
128	19	13	0	16	4864	336	0.000168	1682	1
129	4	4	5	10	400	100	0.000400	1383	1
130	9	10	5	10	900	100	0.000900	1550	1
131	66	20	0	8	4224	340	0.000571	2514	1
132	6	6	0	24	3456	324	0.000057	1165	1
133	46	20	5	10	4600	240	0.000799	2253	1
134	39	21	5	10	3900	220	0.000806	1789	1
135	77	35	0	8	4928	340	0.000666	1995	1
136	27	16	5	10	2700	180	0.000833	2219	1
137	30	32	0	12	4320	336	0.000266	9268	1
138	92	65	5	10	9200	320	0.000898	2034	1
139	45	35	5	10	4500	220	0.000930	2373	1
140	52	23	1	10	5200	340	0.000450	2791	1
141	33	33	1	10	3300	340	0.000285	11438	1
142	59	26	0	10	5900	340	0.000510	4027	1
143	89	46	1	10	8900	340	0.000770	1593	1
144	81	44	5	10	8100	300	0.000900	1871	1
145	87	52	5	10	8700	320	0.000850	1933	1
146	70	36	5	10	7000	280	0.000893	2095	1
147	59	55	1	10	5900	340	0.000510	2518	1
148	63	26	1	10	6300	340	0.000545	18579	1
149	65	32	0	8	4160	340	0.000562	22088	1
150	99	56	1	10	9900	340	0.000856	2491	1
151	35	21	5	10	3500	200	0.000875	2208	1
152	83	33	5	10	8300	300	0.000922	2046	1
153	10	8	1	10	1000	340	0.000087	1732	1
154	6	7	1	10	600	340	0.000052	1575	1
155	64	23	5	10	6400	280	0.000816	1757	1
156	67	34	5	10	6700	280	0.000855	1834	1
157	41	17	5	10	4100	220	0.000847	2547	1
158	54	25	5	10	5400	240	0.000937	2253	1
159	85	35	0	8	5440	340	0.000735	2212	1
160	22	16	0	16	5632	336	0.000195	2031	1
161	56	32	1	10	5600	340	0.000484	2195	1
162	77	42	1	10	7700	340	0.000666	1835	1
163	60	42	0	10	6000	340	0.000519	1985	1
164	98	46	5	10	9800	340	0.000848	3044	1
165	14	8	0	18	4536	336	0.000124	1683	1
166	40	12	1	10	4000	340	0.000346	2232	1
167	45	33	1	10	4500	340	0.000389	1844	1
168	71	39	5	10	7100	280	0.000906	2040	1
169	95	49	5	10	9500	340	0.000822	2416	1
170	1	1	1	10	100	340	0.000009	1420	1
171	3	3	0	24	1728	324	0.000029	1061	1
172	88	46	5	10	8800	320	0.000859	2773	1
173	71	40	1	10	7100	340	0.000614	2168	1
174	93	36	5	10	9300	320	0.000908	2341	1
175	29	32	0	14	5684	336	0.000257	1714	1
176	89	62	0	8	5696	340	0.000770	2461	1
177	78	50	1	10	7800	340	0.000675	2343	1
178	79	52	1	10	7900	340	0.000683	2132	1
179	97	50	5	10	9700	340	0.000839	1495	1
180	84	55	5	10	8400	320	0.000820	2579	1
181	2	2	1	10	200	340	0.000017	1173	1
182	34	32	1	10	3400	340	0.000294	1544	1
183	58	30	5	10	5800	260	0.000858	3630	1
184	60	34	1	10	6000	340	0.000519	1706	1
185	26	17	1	10	2600	340	0.000225	3410	1
186	19	20	1	10	1900	340	0.000164	2349	1
187	43	20	5	10	4300	220	0.000888	4310	1
188	26	15	5	10	2600	180	0.000802	3581	1
189	73	41	5	10	7300	300	0.000811	3300	1
190	42	36	1	10	4200	340	0.000363	1740	1
191	7	6	5	10	700	100	0.000700	1377	1
192	69	40	0	8	4416	340	0.000597	2641	1
193	57	50	0	10	5700	340	0.000493	2646	1
194	15	13	0	18	4860	336	0.000133	1755	1
195	38	20	1	10	3800	340	0.000329	1596	1
196	100	62	5	10	10000	340	0.000865	2424	1
197	92	70	0	8	5888	340	0.000796	2749	1
198	8	9	1	10	800	340	0.000069	1736	1
199	91	42	5	10	9100	320	0.000889	1779	1
200	53	36	5	10	5300	240	0.000920	1995	1
201	22	18	1	10	2200	340	0.000190	2402	1
202	23	20	1	10	2300	340	0.000199	1696	1
203	57	32	5	10	5700	260	0.000843	5918	1
204	84	56	0	8	5376	340	0.000727	2102	1
205	23	21	0	14	4508	336	0.000204	3252	1
206	45	36	0	10	4500	340	0.000389	2336	1
207	58	43	1	10	5800	340	0.000502	2097	1
208	15	15	5	10	1500	140	0.000765	1802	1
209	3	3	5	10	300	100	0.000300	1074	1
210	38	8	5	10	3800	200	0.000950	1909	1
211	78	55	0	8	4992	340	0.000675	2129	1
212	13	11	0	20	5200	320	0.000127	2341	1
213	83	65	0	8	5312	340	0.000718	2358	1
214	12	10	5	10	1200	120	0.000833	3047	1
215	86	56	0	8	5504	340	0.000744	1945	1
216	43	18	0	10	4300	340	0.000372	2271	1
217	36	23	0	12	5184	336	0.000319	1974	1
218	91	65	1	10	9100	340	0.000787	2000	1
219	2	2	5	10	200	100	0.000200	1183	1
220	42	18	5	10	4200	220	0.000868	4262	1
221	34	23	5	10	3400	200	0.000850	1583	1
222	90	45	5	10	9000	320	0.000879	1856	1
223	9	10	1	10	900	340	0.000078	1987	1
224	8	8	0	24	4608	324	0.000076	1572	1
225	55	35	0	10	5500	340	0.000476	5586	1
226	31	20	5	10	3100	180	0.000957	1698	1
227	44	32	0	10	4400	340	0.000381	1767	1
228	10	8	0	22	4840	320	0.000098	1630	1
229	25	15	5	10	2500	160	0.000977	1736	1
230	49	28	0	10	4900	340	0.000424	2248	1
231	18	15	1	10	1800	340	0.000156	1722	1
232	95	54	0	8	6080	340	0.000822	2607	1
233	68	55	1	10	6800	340	0.000588	1961	1
234	12	9	1	10	1200	340	0.000104	2070	1
235	67	39	1	10	6700	340	0.000580	2672	1
236	97	60	0	8	6208	340	0.000839	2067	1
237	74	50	5	10	7400	300	0.000822	1442	1
238	21	20	0	16	5376	336	0.000186	1529	1
239	11	14	5	10	1100	120	0.000764	1893	1
240	63	35	5	10	6300	260	0.000932	1833	1
241	1	1	0	24	576	324	0.000010	1257	1
242	64	56	0	8	4096	340	0.000554	1797	1
243	53	45	0	10	5300	340	0.000458	1535	1
244	88	60	0	8	5632	340	0.000761	1771	1
245	68	55	0	8	4352	340	0.000588	2291	1
246	51	35	5	10	5100	240	0.000885	2250	1
247	75	40	1	10	7500	340	0.000649	1482	1
248	9	8	0	24	5184	324	0.000086	1486	1
249	14	10	5	10	1400	120	0.000972	1906	1
250	92	57	1	10	9200	340	0.000796	3015	1
251	48	30	0	10	4800	340	0.000415	1868	1
252	27	20	1	10	2700	340	0.000234	2599	1
253	63	35	0	8	4032	340	0.000545	1548	1
254	16	20	0	18	5184	336	0.000142	2729	1
255	69	35	1	10	6900	340	0.000597	1696	1
256	95	42	1	10	9500	340	0.000822	1981	1
257	41	35	0	12	5904	336	0.000363	2179	1
258	33	20	0	12	4752	336	0.000292	1292	1
259	24	16	1	10	2400	340	0.000208	1859	1
260	56	36	0	10	5600	340	0.000484	1290	1
261	68	35	5	10	6800	280	0.000867	1689	1
262	100	56	1	10	10000	340	0.000865	1402	1
263	18	12	0	16	4608	336	0.000159	1538	1
264	94	68	0	8	6016	340	0.000813	2440	1
265	22	15	5	10	2200	160	0.000859	1599	1
266	36	31	1	10	3600	340	0.000311	2091	1
267	28	28	1	10	2800	340	0.000242	2293	1
268	71	56	0	8	4544	340	0.000614	2282	1
269	44	36	1	10	4400	340	0.000381	2025	1
270	37	24	5	10	3700	200	0.000925	1610	1
271	98	70	0	8	6272	340	0.000848	3543	1
272	16	17	5	10	1600	140	0.000816	2060	1
273	69	36	5	10	6900	280	0.000880	2533	1
274	43	39	1	10	4300	340	0.000372	1508	1
275	87	58	1	10	8700	340	0.000753	1580	1
276	47	35	0	10	4700	340	0.000407	1843	1
277	74	49	1	10	7400	340	0.000640	1930	1
278	82	38	1	10	8200	340	0.000709	1827	1
279	17	11	0	18	5508	336	0.000151	1438	1
280	26	20	0	14	5096	336	0.000230	1819	1
281	19	16	5	10	1900	140	0.000969	1527	1
282	6	6	5	10	600	100	0.000600	1104	1
283	62	31	5	10	6200	260	0.000917	1750	1
284	24	15	5	10	2400	160	0.000937	1968	1
285	4	5	0	24	2304	324	0.000038	1229	1
286	20	15	0	16	5120	336	0.000177	2072	1
287	17	18	5	10	1700	140	0.000867	1985	1
288	52	39	0	10	5200	340	0.000450	2489	1
289	1	1	5	10	100	100	0.000100	1704	1
290	51	45	1	10	5100	340	0.000441	3169	1
291	34	32	0	12	4896	336	0.000301	1439	1
292	85	68	1	10	8500	340	0.000735	2202	1
293	40	25	5	10	4000	220	0.000826	1493	1
294	80	46	5	10	8000	300	0.000889	1680	1
295	25	39	0	14	4900	336	0.000221	2301	1
296	70	42	0	8	4480	340	0.000606	4562	1
297	93	68	0	8	5952	340	0.000804	3506	1
298	32	56	0	12	4608	336	0.000283	2442	1
299	76	39	1	10	7600	340	0.000657	2858	1
300	83	46	1	10	8300	340	0.000718	11179	1
301	71	36	5	10	7100	280	0.000906	2029	1
302	98	65	0	8	6272	340	0.000848	1803	1
303	49	36	1	10	4900	340	0.000424	1884	1
304	34	25	0	12	4896	336	0.000301	1717	1
305	23	20	1	10	2300	340	0.000199	1397	1
306	28	12	0	14	5488	336	0.000248	2247	1
307	70	40	1	10	7000	340	0.000606	1963	1
308	66	36	5	10	6600	280	0.000842	1613	1
309	63	31	1	10	6300	340	0.000545	1521	1
310	96	45	1	10	9600	340	0.000830	2041	1
311	80	62	0	8	5120	340	0.000692	1997	1
312	32	23	1	10	3200	340	0.000277	2063	1
313	46	35	0	10	4600	340	0.000398	1520	1
314	93	65	1	10	9300	340	0.000804	1666	1
315	70	60	0	8	4480	340	0.000606	4265	1
316	42	25	5	10	4200	220	0.000868	1597	1
317	18	10	5	10	1800	140	0.000918	1708	1
318	89	68	1	10	8900	340	0.000770	2186	1
319	7	6	0	24	4032	324	0.000067	1168	1
320	39	20	5	10	3900	220	0.000806	1612	1
321	89	70	0	8	5696	340	0.000770	3743	1
322	65	40	1	10	6500	340	0.000562	7354	1
323	59	40	1	10	5900	340	0.000510	1702	1
324	42	30	1	10	4200	340	0.000363	1393	1
325	97	50	5	10	9700	340	0.000839	1705	1
326	55	56	5	10	5500	260	0.000814	2190	1
327	11	11	1	10	1100	340	0.000095	2828	1
328	68	45	1	10	6800	340	0.000588	5595	1
329	33	20	5	10	3300	200	0.000825	1515	1
330	5	6	1	10	500	340	0.000043	1105	1
331	17	11	0	18	5508	336	0.000151	1668	1
332	10	10	0	22	4840	320	0.000098	1425	1
333	88	56	5	10	8800	320	0.000859	1669	1
334	83	65	0	8	5312	340	0.000718	1708	1
335	59	45	5	10	5900	260	0.000873	2001	1
336	52	32	5	10	5200	240	0.000903	1817	1
337	78	50	5	10	7800	300	0.000867	2256	1
338	3	3	5	10	300	100	0.000300	1067	1
339	67	65	0	8	4288	340	0.000580	1799	1
340	2	2	0	24	1152	324	0.000019	1107	1
341	26	20	0	14	5096	336	0.000230	2613	1
342	67	35	1	10	6700	340	0.000580	2436	1
343	36	23	0	12	5184	336	0.000319	2489	1
344	8	6	0	24	4608	324	0.000076	1188	1
345	95	65	1	10	9500	340	0.000822	1999	1
346	43	23	5	10	4300	220	0.000888	1597	1
347	14	25	1	10	1400	340	0.000121	1830	1
348	61	32	1	10	6100	340	0.000528	2515	1
349	1	1	0	24	576	324	0.000010	1207	1
350	10	8	5	10	1000	100	0.001000	1818	1
351	99	65	0	8	6336	340	0.000856	1804	1
352	15	10	5	10	1500	140	0.000765	1540	1
353	73	65	0	8	4672	340	0.000631	1835	1
354	40	40	1	10	4000	340	0.000346	2324	1
355	43	30	0	10	4300	340	0.000372	1556	1
356	53	35	0	10	5300	340	0.000458	1467	1
357	49	36	5	10	4900	240	0.000851	1805	1
358	34	40	1	10	3400	340	0.000294	2511	1
359	63	30	5	10	6300	260	0.000932	1657	1
360	44	36	5	10	4400	220	0.000909	1714	1
361	37	30	5	10	3700	200	0.000925	2043	1
362	49	30	0	10	4900	340	0.000424	1632	1
363	66	40	0	8	4224	340	0.000571	2727	1
364	57	46	0	10	5700	340	0.000493	1942	1
365	91	60	0	8	5824	340	0.000787	1762	1
366	11	8	0	22	5324	320	0.000107	1426	1
367	19	35	1	10	1900	340	0.000164	3324	1
368	57	39	5	10	5700	260	0.000843	2441	1
369	17	40	1	10	1700	340	0.000147	1480	1
370	54	40	5	10	5400	240	0.000937	2412	1
371	5	4	5	10	500	100	0.000500	1455	1
372	38	20	0	12	5472	336	0.000337	1392	1
373	76	36	1	10	7600	340	0.000657	2167	1
374	41	35	0	12	5904	336	0.000363	1529	1
375	19	12	5	10	1900	140	0.000969	1740	1
376	79	50	1	10	7900	340	0.000683	1908	1
377	94	70	0	8	6016	340	0.000813	1898	1
378	21	15	5	10	2100	160	0.000820	1666	1
379	88	70	0	8	5632	340	0.000761	2166	1
380	48	30	5	10	4800	240	0.000833	2163	1
381	46	30	5	10	4600	240	0.000799	2264	1
382	15	10	0	18	4860	336	0.000133	1495	1
383	22	15	0	16	5632	336	0.000195	1881	1
384	83	45	1	10	8300	340	0.000718	1819	1
385	61	40	5	10	6100	260	0.000902	1531	1
386	58	45	1	10	5800	340	0.000502	1555	1
387	53	42	5	10	5300	240	0.000920	1891	1
388	56	40	0	10	5600	340	0.000484	1519	1
389	39	32	0	12	5616	336	0.000345	1515	1
390	2	2	5	10	200	100	0.000200	955	1
391	99	50	1	10	9900	340	0.000856	2460	1
392	94	58	1	10	9400	340	0.000813	1781	1
393	60	42	5	10	6000	260	0.000888	1611	1
394	69	40	1	10	6900	340	0.000597	1756	1
395	97	60	1	10	9700	340	0.000839	1836	1
396	58	47	0	10	5800	340	0.000502	2123	1
397	91	50	1	10	9100	340	0.000787	1648	1
398	16	17	1	10	1600	340	0.000138	2418	1
399	16	9	5	10	1600	140	0.000816	1777	1
400	85	35	0	8	5440	340	0.000735	2548	1
401	36	20	1	10	3600	340	0.000311	5303	1
402	45	25	1	10	4500	340	0.000389	2478	1
403	2	2	1	10	200	340	0.000017	1187	1
404	64	26	1	10	6400	340	0.000554	4023	1
405	19	9	0	16	4864	336	0.000168	1991	1
406	91	50	5	10	9100	320	0.000889	2296	1
407	63	49	0	8	4032	340	0.000545	2201	1
408	33	36	1	10	3300	340	0.000285	3430	1
409	31	36	1	10	3100	340	0.000268	1963	1
410	44	38	1	10	4400	340	0.000381	1917	1
411	68	37	0	8	4352	340	0.000588	8892	1
412	74	49	1	10	7400	340	0.000640	2646	1
413	62	40	5	10	6200	260	0.000917	4757	1
414	6	8	5	10	600	100	0.000600	3303	1
415	24	18	0	14	4704	336	0.000213	2643	1
416	73	46	1	10	7300	340	0.000631	2174	1
417	15	13	1	10	1500	340	0.000130	1990	1
418	28	14	5	10	2800	180	0.000864	2524	1
419	67	20	5	10	6700	280	0.000855	2947	1
420	78	65	0	8	4992	340	0.000675	2136	1
421	14	43	0	18	4536	336	0.000124	1572	1
422	98	65	1	10	9800	340	0.000848	1766	1
423	5	4	0	24	2880	324	0.000048	1786	1
424	29	20	5	10	2900	180	0.000895	3013	1
425	65	50	0	8	4160	340	0.000562	3692	1
426	32	20	5	10	3200	200	0.000800	2548	1
427	24	21	1	10	2400	340	0.000208	2254	1
428	4	4	0	24	2304	324	0.000038	1208	1
429	14	10	5	10	1400	120	0.000972	1568	1
430	12	11	5	10	1200	120	0.000833	1583	1
431	87	65	1	10	8700	340	0.000753	2065	1
432	50	40	0	10	5000	340	0.000433	2739	1
433	27	32	0	14	5292	336	0.000239	1579	1
434	68	46	5	10	6800	280	0.000867	1742	1
435	39	49	1	10	3900	340	0.000337	5345	1
436	45	50	0	10	4500	340	0.000389	2014	1
437	4	6	5	10	400	100	0.000400	1199	1
438	23	13	0	14	4508	336	0.000204	1999	1
439	4	4	1	10	400	340	0.000035	1977	1
440	11	8	5	10	1100	120	0.000764	2967	1
441	1	1	1	10	100	340	0.000009	1239	1
442	48	36	1	10	4800	340	0.000415	3660	1
443	71	44	1	10	7100	340	0.000614	3082	1
444	100	72	0	8	6400	340	0.000865	2588	1
445	6	6	1	10	600	340	0.000052	1578	1
446	35	35	0	12	5040	336	0.000310	8773	1
447	61	32	0	10	6100	340	0.000528	2956	1
448	20	11	5	10	2000	160	0.000781	3209	1
449	86	54	5	10	8600	320	0.000840	4607	1
450	27	20	1	10	2700	340	0.000234	2340	1
451	60	32	1	10	6000	340	0.000519	2221	1
452	1	1	5	10	100	100	0.000100	1185	1
453	60	36	0	10	6000	340	0.000519	1836	1
454	78	45	1	10	7800	340	0.000675	1544	1
455	27	36	5	10	2700	180	0.000833	5253	1
456	81	56	0	8	5184	340	0.000701	1330	1
457	64	54	5	10	6400	280	0.000816	2212	1
458	3	3	0	24	1728	324	0.000029	1028	1
459	86	65	0	8	5504	340	0.000744	1834	1
460	38	50	1	10	3800	340	0.000329	1464	1
461	30	36	0	12	4320	336	0.000266	1820	1
462	10	12	1	10	1000	340	0.000087	1614	1
463	90	54	5	10	9000	320	0.000879	2404	1
464	18	17	1	10	1800	340	0.000156	2181	1
465	40	26	0	12	5760	336	0.000354	1763	1
466	95	63	5	10	9500	340	0.000822	3430	1
467	44	20	0	10	4400	340	0.000381	1871	1
468	37	23	1	10	3700	340	0.000320	1463	1
469	92	57	0	8	5888	340	0.000796	1820	1
470	77	46	5	10	7700	300	0.000856	1735	1
471	8	6	5	10	800	100	0.000800	1633	1
472	69	32	5	10	6900	280	0.000880	2026	1
473	88	47	1	10	8800	340	0.000761	1979	1
474	73	50	5	10	7300	300	0.000811	1767	1
475	29	23	1	10	2900	340	0.000251	2306	1
476	50	26	5	10	5000	240	0.000868	6273	1
477	25	36	1	10	2500	340	0.000216	4393	1
478	74	56	5	10	7400	300	0.000822	1829	1
479	54	36	1	10	5400	340	0.000467	8927	1
480	13	6	0	20	5200	320	0.000127	1553	1
481	30	45	5	10	3000	180	0.000926	3379	1
482	34	33	5	10	3400	200	0.000850	9012	1
483	24	20	5	10	2400	160	0.000937	1603	1
484	50	35	1	10	5000	340	0.000433	1624	1
485	25	36	0	14	4900	336	0.000221	1576	1
486	52	55	1	10	5200	340	0.000450	1942	1
487	48	56	0	10	4800	340	0.000415	1542	1
488	94	65	5	10	9400	320	0.000918	1681	1
489	74	68	0	8	4736	340	0.000640	2666	1
490	100	70	1	10	10000	340	0.000865	2679	1
491	62	58	0	8	3968	340	0.000536	2115	1
492	69	62	0	8	4416	340	0.000597	2268	1
493	47	33	5	10	4700	240	0.000816	1662	1
494	33	34	0	12	4752	336	0.000292	1793	1
495	86	50	1	10	8600	340	0.000744	2667	1
496	100	56	5	10	10000	340	0.000865	2124	1
497	41	55	1	10	4100	340	0.000355	1721	1
498	71	54	0	8	4544	340	0.000614	1538	1
499	95	70	0	8	6080	340	0.000822	2053	1
500	64	40	0	8	4096	340	0.000554	2132	1
501	57	32	1	10	5700	340	0.000493	2153	1
502	87	35	0	8	5568	340	0.000753	3434	1
503	46	36	1	10	4600	340	0.000398	1871	1
504	82	55	0	8	5248	340	0.000709	2587	1
505	90	56	1	10	9000	340	0.000779	1859	1
506	56	57	1	10	5600	340	0.000484	2699	1
507	45	56	5	10	4500	220	0.000930	1970	1
508	93	62	5	10	9300	320	0.000908	1954	1
509	82	40	5	10	8200	300	0.000911	7278	1
510	80	45	5	10	8000	300	0.000889	2728	1
511	13	11	1	10	1300	340	0.000112	2146	1
512	26	16	1	10	2600	340	0.000225	1773	1
513	76	26	0	8	4864	340	0.000657	1902	1
514	65	27	5	10	6500	280	0.000829	2123	1
515	80	38	1	10	8000	340	0.000692	1779	1
516	79	46	0	8	5056	340	0.000683	2448	1
517	51	42	0	10	5100	340	0.000441	1915	1
518	12	6	1	10	1200	340	0.000104	1348	1
519	3	3	1	10	300	340	0.000026	978	1
520	37	11	0	12	5328	336	0.000328	1634	1
521	58	11	5	10	5800	260	0.000858	1770	1
522	36	13	5	10	3600	200	0.000900	1613	1
523	85	36	5	10	8500	320	0.000830	1449	1
524	84	45	5	10	8400	320	0.000820	1519	1
525	47	36	1	10	4700	340	0.000407	2495	1
526	55	46	1	10	5500	340	0.000476	2195	1
527	72	45	5	10	7200	280	0.000918	2308	1
528	26	25	5	10	2600	180	0.000802	1954	1
529	52	47	0	10	5200	340	0.000450	2888	1
530	56	36	5	10	5600	260	0.000828	2150	1
531	31	22	5	10	3100	180	0.000957	2077	1
532	59	43	0	10	5900	340	0.000510	3303	1
533	16	12	0	18	5184	336	0.000142	1649	1
534	7	6	5	10	700	100	0.000700	1198	1
535	97	70	0	8	6208	340	0.000839	1660	1
536	82	60	1	10	8200	340	0.000709	1767	1
537	89	58	5	10	8900	320	0.000869	2279	1
538	20	13	1	10	2000	340	0.000173	1692	1
539	84	53	1	10	8400	340	0.000727	2574	1
540	98	63	5	10	9800	340	0.000848	2225	1
541	87	51	5	10	8700	320	0.000850	1921	1
542	72	50	1	10	7200	340	0.000623	1849	1
543	42	40	0	10	4200	340	0.000363	1899	1
544	76	40	5	10	7600	300	0.000844	1693	1
545	99	46	5	10	9900	340	0.000856	1797	1
546	85	58	1	10	8500	340	0.000735	1629	1
547	83	50	5	10	8300	300	0.000922	1655	1
548	12	7	0	20	4800	320	0.000117	2282	1
549	41	20	5	10	4100	220	0.000847	2352	1
550	96	63	0	8	6144	340	0.000830	3014	1
551	84	50	0	8	5376	340	0.000727	4060	1
552	51	40	1	10	5100	340	0.000441	1500	1
553	6	6	0	24	3456	324	0.000057	1182	1
554	9	8	5	10	900	100	0.000900	2257	1
555	31	18	0	12	4464	336	0.000275	2948	1
556	47	28	0	10	4700	340	0.000407	3867	1
557	17	11	5	10	1700	140	0.000867	1791	1
558	55	45	0	10	5500	340	0.000476	2771	1
559	66	40	1	10	6600	340	0.000571	2059	1
560	9	8	0	24	5184	324	0.000086	1793	1
561	38	16	5	10	3800	200	0.000950	1809	1
562	75	56	0	8	4800	340	0.000649	2651	1
563	92	58	1	10	9200	340	0.000796	2516	1
564	81	57	1	10	8100	340	0.000701	2870	1
565	54	46	0	10	5400	340	0.000467	1952	1
566	40	50	5	10	4000	220	0.000826	2801	1
567	77	54	0	8	4928	340	0.000666	1737	1
568	35	32	5	10	3500	200	0.000875	1665	1
569	75	45	5	10	7500	300	0.000833	1608	1
570	93	58	0	8	5952	340	0.000804	1954	1
571	20	16	0	16	5120	336	0.000177	2295	1
572	92	28	5	10	9200	320	0.000898	24015	1
573	77	46	1	10	7700	340	0.000666	1756	1
574	62	39	1	10	6200	340	0.000536	1888	1
575	13	9	5	10	1300	120	0.000903	1700	1
576	21	11	0	16	5376	336	0.000186	1547	1
577	21	17	1	10	2100	340	0.000182	1562	1
578	35	20	1	10	3500	340	0.000303	1531	1
579	7	8	1	10	700	340	0.000061	1789	1
580	72	46	0	8	4608	340	0.000623	1791	1
581	22	25	5	10	2200	160	0.000859	1776	1
582	9	7	1	10	900	340	0.000078	1461	1
583	79	29	5	10	7900	300	0.000878	4447	1
584	43	19	1	10	4300	340	0.000372	2002	1
585	32	20	0	12	4608	336	0.000283	1600	1
586	70	36	5	10	7000	280	0.000893	1548	1
587	30	30	1	10	3000	340	0.000260	1714	1
588	8	7	1	10	800	340	0.000069	1608	1
589	81	23	5	10	8100	300	0.000900	2293	1
590	25	19	5	10	2500	160	0.000977	1799	1
591	96	43	5	10	9600	340	0.000830	2158	1
592	28	40	1	10	2800	340	0.000242	2017	1
593	18	15	0	16	4608	336	0.000159	2080	1
594	29	20	0	14	5684	336	0.000257	1355	1
595	75	56	1	10	7500	340	0.000649	1744	1
596	90	59	0	8	5760	340	0.000779	1734	1
597	53	60	1	10	5300	340	0.000458	2109	1
598	51	46	5	10	5100	240	0.000885	1854	1
599	22	36	1	10	2200	340	0.000190	3512	1
600	23	10	5	10	2300	160	0.000898	1964	1
1	6	6	0	24	3456	324	0.000057	3621	1
2	29	13	0	14	5684	336	0.000257	1870	1
3	46	25	1	10	4600	340	0.000398	1634	1
4	97	54	0	8	6208	340	0.000839	1680	1
5	8	7	1	10	800	340	0.000069	1685	1
6	6	7	1	10	600	340	0.000052	2072	1
7	39	20	0	12	5616	336	0.000345	1711	1
8	29	17	5	10	2900	180	0.000895	2313	1
9	60	36	0	10	6000	340	0.000519	1480	1
10	58	46	1	10	5800	340	0.000502	1650	1
11	59	36	5	10	5900	260	0.000873	1714	1
12	86	58	0	8	5504	340	0.000744	1957	1
13	4	5	1	10	400	340	0.000035	1621	1
14	44	20	0	10	4400	340	0.000381	1890	1
15	43	22	0	10	4300	340	0.000372	1492	1
16	93	56	0	8	5952	340	0.000804	1556	1
17	71	47	0	8	4544	340	0.000614	1761	1
18	53	25	5	10	5300	240	0.000920	1636	1
19	94	55	1	10	9400	340	0.000813	1764	1
20	17	12	0	18	5508	336	0.000151	2037	1
21	48	20	0	10	4800	340	0.000415	1605	1
22	52	25	1	10	5200	340	0.000450	1506	1
23	78	40	0	8	4992	340	0.000675	2050	1
24	86	47	5	10	8600	320	0.000840	1914	1
25	11	10	1	10	1100	340	0.000095	2208	1
26	4	4	5	10	400	100	0.000400	1228	1
27	76	40	0	8	4864	340	0.000657	2184	1
28	31	20	0	12	4464	336	0.000275	1561	1
29	37	23	1	10	3700	340	0.000320	1454	1
30	41	24	1	10	4100	340	0.000355	1596	1
31	64	38	0	8	4096	340	0.000554	2477	1
32	3	3	0	24	1728	324	0.000029	978	1
33	80	60	1	10	8000	340	0.000692	2842	1
34	64	54	1	10	6400	340	0.000554	1630	1
35	92	63	1	10	9200	340	0.000796	1591	1
36	21	11	5	10	2100	160	0.000820	1848	1
37	33	20	1	10	3300	340	0.000285	2038	1
38	22	16	1	10	2200	340	0.000190	1503	1
39	17	14	1	10	1700	340	0.000147	1621	1
40	45	17	0	10	4500	340	0.000389	1813	1
41	88	34	5	10	8800	320	0.000859	2554	1
42	58	33	0	10	5800	340	0.000502	1433	1
43	72	45	1	10	7200	340	0.000623	1375	1
44	85	45	5	10	8500	320	0.000830	13396	1
45	81	45	1	10	8100	340	0.000701	2100	1
46	15	10	1	10	1500	340	0.000130	1511	1
47	73	35	5	10	7300	300	0.000811	3483	1
48	19	12	0	16	4864	336	0.000168	5046	1
49	53	34	0	10	5300	340	0.000458	2107	1
50	91	36	5	10	9100	320	0.000889	2505	1
51	96	57	1	10	9600	340	0.000830	2244	1
52	98	47	1	10	9800	340	0.000848	1848	1
53	23	16	0	14	4508	336	0.000204	1709	1
54	14	11	0	18	4536	336	0.000124	1515	1
55	80	40	5	10	8000	300	0.000889	1712	1
56	53	35	1	10	5300	340	0.000458	1430	1
57	57	36	1	10	5700	340	0.000493	1331	1
58	56	30	0	10	5600	340	0.000484	1790	1
59	40	40	0	12	5760	336	0.000354	15279	1
60	30	10	0	12	4320	336	0.000266	1856	1
61	50	23	1	10	5000	340	0.000433	1816	1
62	25	32	0	14	4900	336	0.000221	11901	1
63	61	33	5	10	6100	260	0.000902	1388	1
64	24	16	1	10	2400	340	0.000208	1495	1
65	76	42	5	10	7600	300	0.000844	1741	1
66	15	11	0	18	4860	336	0.000133	1431	1
67	20	20	1	10	2000	340	0.000173	2006	1
68	1	1	5	10	100	100	0.000100	1218	1
69	1	1	0	24	576	324	0.000010	1124	1
70	79	54	0	8	5056	340	0.000683	2220	1
71	74	43	5	10	7400	300	0.000822	1628	1
72	51	24	5	10	5100	240	0.000885	1898	1
